subject,group,control,period,product,bid,policy,shock,female,age,bmi
2721961,2720001,0,1,chocolate,250,FALSE,FALSE,1,48,28.3987180007303
2721961,2720001,0,2,chocolate,200,FALSE,FALSE,1,48,28.3987180007303
2721961,2720001,0,3,chocolate,200,FALSE,FALSE,1,48,28.3987180007303
2721961,2720001,0,4,chocolate,180,FALSE,FALSE,1,48,28.3987180007303
2721961,2720001,0,5,chocolate,200,TRUE,TRUE,1,48,28.3987180007303
2721961,2720001,0,6,chocolate,200,TRUE,FALSE,1,48,28.3987180007303
2721961,2720001,0,7,chocolate,200,TRUE,FALSE,1,48,28.3987180007303
2721961,2720001,0,8,chocolate,200,TRUE,FALSE,1,48,28.3987180007303
2722428,2720001,0,1,chocolate,100,FALSE,FALSE,1,51,28.5779606767261
2722428,2720001,0,2,chocolate,100,FALSE,FALSE,1,51,28.5779606767261
2722428,2720001,0,3,chocolate,100,FALSE,FALSE,1,51,28.5779606767261
2722428,2720001,0,4,chocolate,100,FALSE,FALSE,1,51,28.5779606767261
2722428,2720001,0,5,chocolate,150,TRUE,TRUE,1,51,28.5779606767261
2722428,2720001,0,6,chocolate,150,TRUE,FALSE,1,51,28.5779606767261
2722428,2720001,0,7,chocolate,150,TRUE,FALSE,1,51,28.5779606767261
2722428,2720001,0,8,chocolate,150,TRUE,FALSE,1,51,28.5779606767261
2722469,2720001,0,1,chocolate,200,FALSE,FALSE,1,56,20.7612456747405
2722469,2720001,0,2,chocolate,199,FALSE,FALSE,1,56,20.7612456747405
2722469,2720001,0,3,chocolate,190,FALSE,FALSE,1,56,20.7612456747405
2722469,2720001,0,4,chocolate,150,FALSE,FALSE,1,56,20.7612456747405
2722469,2720001,0,5,chocolate,210,TRUE,TRUE,1,56,20.7612456747405
2722469,2720001,0,6,chocolate,205,TRUE,FALSE,1,56,20.7612456747405
2722469,2720001,0,7,chocolate,200,TRUE,FALSE,1,56,20.7612456747405
2722469,2720001,0,8,chocolate,200,TRUE,FALSE,1,56,20.7612456747405
2723569,2720001,0,1,chocolate,105,FALSE,FALSE,1,55,20.2847985719502
2723569,2720001,0,2,chocolate,105,FALSE,FALSE,1,55,20.2847985719502
2723569,2720001,0,3,chocolate,120,FALSE,FALSE,1,55,20.2847985719502
2723569,2720001,0,4,chocolate,125,FALSE,FALSE,1,55,20.2847985719502
2723569,2720001,0,5,chocolate,150,TRUE,TRUE,1,55,20.2847985719502
2723569,2720001,0,6,chocolate,150,TRUE,FALSE,1,55,20.2847985719502
2723569,2720001,0,7,chocolate,150,TRUE,FALSE,1,55,20.2847985719502
2723569,2720001,0,8,chocolate,150,TRUE,FALSE,1,55,20.2847985719502
2724054,2720002,0,1,chocolate,120,FALSE,FALSE,0,39,22.4087867693473
2724054,2720002,0,2,chocolate,120,FALSE,FALSE,0,39,22.4087867693473
2724054,2720002,0,3,chocolate,120,FALSE,FALSE,0,39,22.4087867693473
2724054,2720002,0,4,chocolate,120,FALSE,FALSE,0,39,22.4087867693473
2724054,2720002,0,5,chocolate,140,TRUE,TRUE,0,39,22.4087867693473
2724054,2720002,0,6,chocolate,140,TRUE,FALSE,0,39,22.4087867693473
2724054,2720002,0,7,chocolate,140,TRUE,FALSE,0,39,22.4087867693473
2724054,2720002,0,8,chocolate,140,TRUE,FALSE,0,39,22.4087867693473
2724415,2720002,0,1,chocolate,175,FALSE,FALSE,1,51,24.2424242424242
2724415,2720002,0,2,chocolate,175,FALSE,FALSE,1,51,24.2424242424242
2724415,2720002,0,3,chocolate,153,FALSE,FALSE,1,51,24.2424242424242
2724415,2720002,0,4,chocolate,153,FALSE,FALSE,1,51,24.2424242424242
2724415,2720002,0,5,chocolate,185,TRUE,TRUE,1,51,24.2424242424242
2724415,2720002,0,6,chocolate,185,TRUE,FALSE,1,51,24.2424242424242
2724415,2720002,0,7,chocolate,155,TRUE,FALSE,1,51,24.2424242424242
2724415,2720002,0,8,chocolate,155,TRUE,FALSE,1,51,24.2424242424242
2725538,2720002,0,1,chocolate,50,FALSE,FALSE,1,27,19.7231833910035
2725538,2720002,0,2,chocolate,50,FALSE,FALSE,1,27,19.7231833910035
2725538,2720002,0,3,chocolate,50,FALSE,FALSE,1,27,19.7231833910035
2725538,2720002,0,4,chocolate,50,FALSE,FALSE,1,27,19.7231833910035
2725538,2720002,0,5,chocolate,60,TRUE,TRUE,1,27,19.7231833910035
2725538,2720002,0,6,chocolate,60,TRUE,FALSE,1,27,19.7231833910035
2725538,2720002,0,7,chocolate,60,TRUE,FALSE,1,27,19.7231833910035
2725538,2720002,0,8,chocolate,60,TRUE,FALSE,1,27,19.7231833910035
2725829,2720002,0,1,chocolate,189,FALSE,FALSE,1,53,29.296875
2725829,2720002,0,2,chocolate,169,FALSE,FALSE,1,53,29.296875
2725829,2720002,0,3,chocolate,159,FALSE,FALSE,1,53,29.296875
2725829,2720002,0,4,chocolate,139,FALSE,FALSE,1,53,29.296875
2725829,2720002,0,5,chocolate,149,TRUE,TRUE,1,53,29.296875
2725829,2720002,0,6,chocolate,149,TRUE,FALSE,1,53,29.296875
2725829,2720002,0,7,chocolate,149,TRUE,FALSE,1,53,29.296875
2725829,2720002,0,8,chocolate,149,TRUE,FALSE,1,53,29.296875
2726155,2720003,0,1,chocolate,90,FALSE,FALSE,1,62,20.2847985719502
2726155,2720003,0,2,chocolate,100,FALSE,FALSE,1,62,20.2847985719502
2726155,2720003,0,3,chocolate,105,FALSE,FALSE,1,62,20.2847985719502
2726155,2720003,0,4,chocolate,105,FALSE,FALSE,1,62,20.2847985719502
2726155,2720003,0,5,chocolate,140,TRUE,TRUE,1,62,20.2847985719502
2726155,2720003,0,6,chocolate,135,TRUE,FALSE,1,62,20.2847985719502
2726155,2720003,0,7,chocolate,140,TRUE,FALSE,1,62,20.2847985719502
2726155,2720003,0,8,chocolate,125,TRUE,FALSE,1,62,20.2847985719502
2726302,2720003,0,1,chocolate,115,FALSE,FALSE,1,25,20.9041950113379
2726302,2720003,0,2,chocolate,95,FALSE,FALSE,1,25,20.9041950113379
2726302,2720003,0,3,chocolate,105,FALSE,FALSE,1,25,20.9041950113379
2726302,2720003,0,4,chocolate,95,FALSE,FALSE,1,25,20.9041950113379
2726302,2720003,0,5,chocolate,105,TRUE,TRUE,1,25,20.9041950113379
2726302,2720003,0,6,chocolate,95,TRUE,FALSE,1,25,20.9041950113379
2726302,2720003,0,7,chocolate,115,TRUE,FALSE,1,25,20.9041950113379
2726302,2720003,0,8,chocolate,115,TRUE,FALSE,1,25,20.9041950113379
2727188,2720003,0,1,chocolate,186,FALSE,FALSE,1,37,31.1418685121107
2727188,2720003,0,2,chocolate,177,FALSE,FALSE,1,37,31.1418685121107
2727188,2720003,0,3,chocolate,123,FALSE,FALSE,1,37,31.1418685121107
2727188,2720003,0,4,chocolate,142,FALSE,FALSE,1,37,31.1418685121107
2727188,2720003,0,5,chocolate,162,TRUE,TRUE,1,37,31.1418685121107
2727188,2720003,0,6,chocolate,153,TRUE,FALSE,1,37,31.1418685121107
2727188,2720003,0,7,chocolate,150,TRUE,FALSE,1,37,31.1418685121107
2727188,2720003,0,8,chocolate,149,TRUE,FALSE,1,37,31.1418685121107
2727613,2720003,0,1,chocolate,120,FALSE,FALSE,0,30,19.7530864197531
2727613,2720003,0,2,chocolate,110,FALSE,FALSE,0,30,19.7530864197531
2727613,2720003,0,3,chocolate,110,FALSE,FALSE,0,30,19.7530864197531
2727613,2720003,0,4,chocolate,115,FALSE,FALSE,0,30,19.7530864197531
2727613,2720003,0,5,chocolate,125,TRUE,TRUE,0,30,19.7530864197531
2727613,2720003,0,6,chocolate,130,TRUE,FALSE,0,30,19.7530864197531
2727613,2720003,0,7,chocolate,125,TRUE,FALSE,0,30,19.7530864197531
2727613,2720003,0,8,chocolate,125,TRUE,FALSE,0,30,19.7530864197531
2728156,2720004,0,1,chocolate,110,FALSE,FALSE,1,59,22.4913494809689
2728156,2720004,0,2,chocolate,150,FALSE,FALSE,1,59,22.4913494809689
2728156,2720004,0,3,chocolate,150,FALSE,FALSE,1,59,22.4913494809689
2728156,2720004,0,4,chocolate,150,FALSE,FALSE,1,59,22.4913494809689
2728156,2720004,0,5,chocolate,150,TRUE,TRUE,1,59,22.4913494809689
2728156,2720004,0,6,chocolate,150,TRUE,FALSE,1,59,22.4913494809689
2728156,2720004,0,7,chocolate,150,TRUE,FALSE,1,59,22.4913494809689
2728156,2720004,0,8,chocolate,160,TRUE,FALSE,1,59,22.4913494809689
2728919,2720004,0,1,chocolate,178,FALSE,FALSE,1,57,27.0841590698903
2728919,2720004,0,2,chocolate,165,FALSE,FALSE,1,57,27.0841590698903
2728919,2720004,0,3,chocolate,165,FALSE,FALSE,1,57,27.0841590698903
2728919,2720004,0,4,chocolate,160,FALSE,FALSE,1,57,27.0841590698903
2728919,2720004,0,5,chocolate,185,TRUE,TRUE,1,57,27.0841590698903
2728919,2720004,0,6,chocolate,190,TRUE,FALSE,1,57,27.0841590698903
2728919,2720004,0,7,chocolate,195,TRUE,FALSE,1,57,27.0841590698903
2728919,2720004,0,8,chocolate,195,TRUE,FALSE,1,57,27.0841590698903
2729594,2720004,0,1,chocolate,150,FALSE,FALSE,1,55,21.484375
2729594,2720004,0,2,chocolate,150,FALSE,FALSE,1,55,21.484375
2729594,2720004,0,3,chocolate,150,FALSE,FALSE,1,55,21.484375
2729594,2720004,0,4,chocolate,150,FALSE,FALSE,1,55,21.484375
2729594,2720004,0,5,chocolate,225,TRUE,TRUE,1,55,21.484375
2729594,2720004,0,6,chocolate,225,TRUE,FALSE,1,55,21.484375
2729594,2720004,0,7,chocolate,225,TRUE,FALSE,1,55,21.484375
2729594,2720004,0,8,chocolate,225,TRUE,FALSE,1,55,21.484375
2729616,2720004,0,1,chocolate,310,FALSE,FALSE,1,46,22.0317256849864
2729616,2720004,0,2,chocolate,310,FALSE,FALSE,1,46,22.0317256849864
2729616,2720004,0,3,chocolate,310,FALSE,FALSE,1,46,22.0317256849864
2729616,2720004,0,4,chocolate,310,FALSE,FALSE,1,46,22.0317256849864
2729616,2720004,0,5,chocolate,310,TRUE,TRUE,1,46,22.0317256849864
2729616,2720004,0,6,chocolate,310,TRUE,FALSE,1,46,22.0317256849864
2729616,2720004,0,7,chocolate,310,TRUE,FALSE,1,46,22.0317256849864
2729616,2720004,0,8,chocolate,310,TRUE,FALSE,1,46,22.0317256849864
2751961,2750001,0,1,wine,499,FALSE,FALSE,1,52,19.53125
2751961,2750001,0,2,wine,475,FALSE,FALSE,1,52,19.53125
2751961,2750001,0,3,wine,470,FALSE,FALSE,1,52,19.53125
2751961,2750001,0,4,wine,465,FALSE,FALSE,1,52,19.53125
2751961,2750001,0,5,wine,470,TRUE,TRUE,1,52,19.53125
2751961,2750001,0,6,wine,475,TRUE,FALSE,1,52,19.53125
2751961,2750001,0,7,wine,480,TRUE,FALSE,1,52,19.53125
2751961,2750001,0,8,wine,480,TRUE,FALSE,1,52,19.53125
2752428,2750001,0,1,wine,223,FALSE,FALSE,0,62,30.0612787605503
2752428,2750001,0,2,wine,223,FALSE,FALSE,0,62,30.0612787605503
2752428,2750001,0,3,wine,225,FALSE,FALSE,0,62,30.0612787605503
2752428,2750001,0,4,wine,225,FALSE,FALSE,0,62,30.0612787605503
2752428,2750001,0,5,wine,299,TRUE,TRUE,0,62,30.0612787605503
2752428,2750001,0,6,wine,299,TRUE,FALSE,0,62,30.0612787605503
2752428,2750001,0,7,wine,299,TRUE,FALSE,0,62,30.0612787605503
2752428,2750001,0,8,wine,299,TRUE,FALSE,0,62,30.0612787605503
2752469,2750001,0,1,wine,359,FALSE,FALSE,1,61,24.4472789115646
2752469,2750001,0,2,wine,399,FALSE,FALSE,1,61,24.4472789115646
2752469,2750001,0,3,wine,399,FALSE,FALSE,1,61,24.4472789115646
2752469,2750001,0,4,wine,399,FALSE,FALSE,1,61,24.4472789115646
2752469,2750001,0,5,wine,459,TRUE,TRUE,1,61,24.4472789115646
2752469,2750001,0,6,wine,469,TRUE,FALSE,1,61,24.4472789115646
2752469,2750001,0,7,wine,469,TRUE,FALSE,1,61,24.4472789115646
2752469,2750001,0,8,wine,469,TRUE,FALSE,1,61,24.4472789115646
2753569,2750001,0,1,wine,550,FALSE,FALSE,0,62,24.0740740740741
2753569,2750001,0,2,wine,455,FALSE,FALSE,0,62,24.0740740740741
2753569,2750001,0,3,wine,395,FALSE,FALSE,0,62,24.0740740740741
2753569,2750001,0,4,wine,425,FALSE,FALSE,0,62,24.0740740740741
2753569,2750001,0,5,wine,635,TRUE,TRUE,0,62,24.0740740740741
2753569,2750001,0,6,wine,610,TRUE,FALSE,0,62,24.0740740740741
2753569,2750001,0,7,wine,525,TRUE,FALSE,0,62,24.0740740740741
2753569,2750001,0,8,wine,490,TRUE,FALSE,0,62,24.0740740740741
2754054,2750002,0,1,wine,500,FALSE,FALSE,1,25,20.7612456747405
2754054,2750002,0,2,wine,400,FALSE,FALSE,1,25,20.7612456747405
2754054,2750002,0,3,wine,400,FALSE,FALSE,1,25,20.7612456747405
2754054,2750002,0,4,wine,400,FALSE,FALSE,1,25,20.7612456747405
2754054,2750002,0,5,wine,500,TRUE,TRUE,1,25,20.7612456747405
2754054,2750002,0,6,wine,500,TRUE,FALSE,1,25,20.7612456747405
2754054,2750002,0,7,wine,500,TRUE,FALSE,1,25,20.7612456747405
2754054,2750002,0,8,wine,500,TRUE,FALSE,1,25,20.7612456747405
2754415,2750002,0,1,wine,425,FALSE,FALSE,1,41,23.1472551213302
2754415,2750002,0,2,wine,350,FALSE,FALSE,1,41,23.1472551213302
2754415,2750002,0,3,wine,320,FALSE,FALSE,1,41,23.1472551213302
2754415,2750002,0,4,wine,315,FALSE,FALSE,1,41,23.1472551213302
2754415,2750002,0,5,wine,345,TRUE,TRUE,1,41,23.1472551213302
2754415,2750002,0,6,wine,345,TRUE,FALSE,1,41,23.1472551213302
2754415,2750002,0,7,wine,345,TRUE,FALSE,1,41,23.1472551213302
2754415,2750002,0,8,wine,345,TRUE,FALSE,1,41,23.1472551213302
2755538,2750002,0,1,wine,290,FALSE,FALSE,1,37,25.8760580676286
2755538,2750002,0,2,wine,290,FALSE,FALSE,1,37,25.8760580676286
2755538,2750002,0,3,wine,290,FALSE,FALSE,1,37,25.8760580676286
2755538,2750002,0,4,wine,290,FALSE,FALSE,1,37,25.8760580676286
2755538,2750002,0,5,wine,315,TRUE,TRUE,1,37,25.8760580676286
2755538,2750002,0,6,wine,315,TRUE,FALSE,1,37,25.8760580676286
2755538,2750002,0,7,wine,315,TRUE,FALSE,1,37,25.8760580676286
2755538,2750002,0,8,wine,315,TRUE,FALSE,1,37,25.8760580676286
2755829,2750002,0,1,wine,335,FALSE,FALSE,0,49,29.9835879308168
2755829,2750002,0,2,wine,335,FALSE,FALSE,0,49,29.9835879308168
2755829,2750002,0,3,wine,335,FALSE,FALSE,0,49,29.9835879308168
2755829,2750002,0,4,wine,335,FALSE,FALSE,0,49,29.9835879308168
2755829,2750002,0,5,wine,335,TRUE,TRUE,0,49,29.9835879308168
2755829,2750002,0,6,wine,335,TRUE,FALSE,0,49,29.9835879308168
2755829,2750002,0,7,wine,335,TRUE,FALSE,0,49,29.9835879308168
2755829,2750002,0,8,wine,335,TRUE,FALSE,0,49,29.9835879308168
2756155,2750003,0,1,wine,300,FALSE,FALSE,1,31,19.4674012855831
2756155,2750003,0,2,wine,300,FALSE,FALSE,1,31,19.4674012855831
2756155,2750003,0,3,wine,300,FALSE,FALSE,1,31,19.4674012855831
2756155,2750003,0,4,wine,300,FALSE,FALSE,1,31,19.4674012855831
2756155,2750003,0,5,wine,500,TRUE,TRUE,1,31,19.4674012855831
2756155,2750003,0,6,wine,500,TRUE,FALSE,1,31,19.4674012855831
2756155,2750003,0,7,wine,500,TRUE,FALSE,1,31,19.4674012855831
2756155,2750003,0,8,wine,500,TRUE,FALSE,1,31,19.4674012855831
2756302,2750003,0,1,wine,425,FALSE,FALSE,0,30,21.7994451050337
2756302,2750003,0,2,wine,375,FALSE,FALSE,0,30,21.7994451050337
2756302,2750003,0,3,wine,325,FALSE,FALSE,0,30,21.7994451050337
2756302,2750003,0,4,wine,310,FALSE,FALSE,0,30,21.7994451050337
2756302,2750003,0,5,wine,390,TRUE,TRUE,0,30,21.7994451050337
2756302,2750003,0,6,wine,399,TRUE,FALSE,0,30,21.7994451050337
2756302,2750003,0,7,wine,399,TRUE,FALSE,0,30,21.7994451050337
2756302,2750003,0,8,wine,399,TRUE,FALSE,0,30,21.7994451050337
2757188,2750003,0,1,wine,275,FALSE,FALSE,0,34,24.161722462348
2757188,2750003,0,2,wine,300,FALSE,FALSE,0,34,24.161722462348
2757188,2750003,0,3,wine,300,FALSE,FALSE,0,34,24.161722462348
2757188,2750003,0,4,wine,300,FALSE,FALSE,0,34,24.161722462348
2757188,2750003,0,5,wine,300,TRUE,TRUE,0,34,24.161722462348
2757188,2750003,0,6,wine,300,TRUE,FALSE,0,34,24.161722462348
2757188,2750003,0,7,wine,300,TRUE,FALSE,0,34,24.161722462348
2757188,2750003,0,8,wine,300,TRUE,FALSE,0,34,24.161722462348
2757613,2750003,0,1,wine,550,FALSE,FALSE,1,39,26.078971533517
2757613,2750003,0,2,wine,400,FALSE,FALSE,1,39,26.078971533517
2757613,2750003,0,3,wine,375,FALSE,FALSE,1,39,26.078971533517
2757613,2750003,0,4,wine,350,FALSE,FALSE,1,39,26.078971533517
2757613,2750003,0,5,wine,450,TRUE,TRUE,1,39,26.078971533517
2757613,2750003,0,6,wine,450,TRUE,FALSE,1,39,26.078971533517
2757613,2750003,0,7,wine,450,TRUE,FALSE,1,39,26.078971533517
2757613,2750003,0,8,wine,450,TRUE,FALSE,1,39,26.078971533517
2758156,2750004,0,1,wine,270,FALSE,FALSE,1,52,18.7304890738814
2758156,2750004,0,2,wine,270,FALSE,FALSE,1,52,18.7304890738814
2758156,2750004,0,3,wine,270,FALSE,FALSE,1,52,18.7304890738814
2758156,2750004,0,4,wine,270,FALSE,FALSE,1,52,18.7304890738814
2758156,2750004,0,5,wine,540,TRUE,TRUE,1,52,18.7304890738814
2758156,2750004,0,6,wine,530,TRUE,FALSE,1,52,18.7304890738814
2758156,2750004,0,7,wine,490,TRUE,FALSE,1,52,18.7304890738814
2758156,2750004,0,8,wine,490,TRUE,FALSE,1,52,18.7304890738814
2758919,2750004,0,1,wine,350,FALSE,FALSE,0,66,22.6473769605192
2758919,2750004,0,2,wine,275,FALSE,FALSE,0,66,22.6473769605192
2758919,2750004,0,3,wine,270,FALSE,FALSE,0,66,22.6473769605192
2758919,2750004,0,4,wine,265,FALSE,FALSE,0,66,22.6473769605192
2758919,2750004,0,5,wine,280,TRUE,TRUE,0,66,22.6473769605192
2758919,2750004,0,6,wine,350,TRUE,FALSE,0,66,22.6473769605192
2758919,2750004,0,7,wine,350,TRUE,FALSE,0,66,22.6473769605192
2758919,2750004,0,8,wine,360,TRUE,FALSE,0,66,22.6473769605192
2759594,2750004,0,1,wine,280,FALSE,FALSE,1,39,20.7197873969641
2759594,2750004,0,2,wine,260,FALSE,FALSE,1,39,20.7197873969641
2759594,2750004,0,3,wine,260,FALSE,FALSE,1,39,20.7197873969641
2759594,2750004,0,4,wine,260,FALSE,FALSE,1,39,20.7197873969641
2759594,2750004,0,5,wine,430,TRUE,TRUE,1,39,20.7197873969641
2759594,2750004,0,6,wine,430,TRUE,FALSE,1,39,20.7197873969641
2759594,2750004,0,7,wine,380,TRUE,FALSE,1,39,20.7197873969641
2759594,2750004,0,8,wine,380,TRUE,FALSE,1,39,20.7197873969641
2759616,2750004,0,1,wine,250,FALSE,FALSE,1,53,24.2424242424242
2759616,2750004,0,2,wine,280,FALSE,FALSE,1,53,24.2424242424242
2759616,2750004,0,3,wine,280,FALSE,FALSE,1,53,24.2424242424242
2759616,2750004,0,4,wine,270,FALSE,FALSE,1,53,24.2424242424242
2759616,2750004,0,5,wine,300,TRUE,TRUE,1,53,24.2424242424242
2759616,2750004,0,6,wine,350,TRUE,FALSE,1,53,24.2424242424242
2759616,2750004,0,7,wine,380,TRUE,FALSE,1,53,24.2424242424242
2759616,2750004,0,8,wine,390,TRUE,FALSE,1,53,24.2424242424242
2861961,2860001,0,1,chocolate,200,FALSE,FALSE,0,47,21.0498179023689
2861961,2860001,0,2,chocolate,190,FALSE,FALSE,0,47,21.0498179023689
2861961,2860001,0,3,chocolate,149,FALSE,FALSE,0,47,21.0498179023689
2861961,2860001,0,4,chocolate,99,FALSE,FALSE,0,47,21.0498179023689
2861961,2860001,0,5,chocolate,190,TRUE,TRUE,0,47,21.0498179023689
2861961,2860001,0,6,chocolate,149,TRUE,FALSE,0,47,21.0498179023689
2861961,2860001,0,7,chocolate,125,TRUE,FALSE,0,47,21.0498179023689
2861961,2860001,0,8,chocolate,150,TRUE,FALSE,0,47,21.0498179023689
2862428,2860001,0,1,chocolate,150,FALSE,FALSE,1,63,22.77318640955
2862428,2860001,0,2,chocolate,130,FALSE,FALSE,1,63,22.77318640955
2862428,2860001,0,3,chocolate,120,FALSE,FALSE,1,63,22.77318640955
2862428,2860001,0,4,chocolate,110,FALSE,FALSE,1,63,22.77318640955
2862428,2860001,0,5,chocolate,120,TRUE,TRUE,1,63,22.77318640955
2862428,2860001,0,6,chocolate,120,TRUE,FALSE,1,63,22.77318640955
2862428,2860001,0,7,chocolate,130,TRUE,FALSE,1,63,22.77318640955
2862428,2860001,0,8,chocolate,130,TRUE,FALSE,1,63,22.77318640955
2862469,2860001,0,1,chocolate,80,FALSE,FALSE,1,57,22.265625
2862469,2860001,0,2,chocolate,80,FALSE,FALSE,1,57,22.265625
2862469,2860001,0,3,chocolate,80,FALSE,FALSE,1,57,22.265625
2862469,2860001,0,4,chocolate,80,FALSE,FALSE,1,57,22.265625
2862469,2860001,0,5,chocolate,80,TRUE,TRUE,1,57,22.265625
2862469,2860001,0,6,chocolate,80,TRUE,FALSE,1,57,22.265625
2862469,2860001,0,7,chocolate,80,TRUE,FALSE,1,57,22.265625
2862469,2860001,0,8,chocolate,80,TRUE,FALSE,1,57,22.265625
2863569,2860001,0,1,chocolate,35,FALSE,FALSE,1,32,19.0249702734839
2863569,2860001,0,2,chocolate,35,FALSE,FALSE,1,32,19.0249702734839
2863569,2860001,0,3,chocolate,35,FALSE,FALSE,1,32,19.0249702734839
2863569,2860001,0,4,chocolate,35,FALSE,FALSE,1,32,19.0249702734839
2863569,2860001,0,5,chocolate,35,TRUE,TRUE,1,32,19.0249702734839
2863569,2860001,0,6,chocolate,35,TRUE,FALSE,1,32,19.0249702734839
2863569,2860001,0,7,chocolate,37,TRUE,FALSE,1,32,19.0249702734839
2863569,2860001,0,8,chocolate,35,TRUE,FALSE,1,32,19.0249702734839
2864054,2860002,0,1,chocolate,80,FALSE,FALSE,0,63,20.6575400021008
2864054,2860002,0,2,chocolate,80,FALSE,FALSE,0,63,20.6575400021008
2864054,2860002,0,3,chocolate,80,FALSE,FALSE,0,63,20.6575400021008
2864054,2860002,0,4,chocolate,80,FALSE,FALSE,0,63,20.6575400021008
2864054,2860002,0,5,chocolate,110,TRUE,TRUE,0,63,20.6575400021008
2864054,2860002,0,6,chocolate,110,TRUE,FALSE,0,63,20.6575400021008
2864054,2860002,0,7,chocolate,120,TRUE,FALSE,0,63,20.6575400021008
2864054,2860002,0,8,chocolate,120,TRUE,FALSE,0,63,20.6575400021008
2864415,2860002,0,1,chocolate,200,FALSE,FALSE,1,34,20.829995193078
2864415,2860002,0,2,chocolate,120,FALSE,FALSE,1,34,20.829995193078
2864415,2860002,0,3,chocolate,120,FALSE,FALSE,1,34,20.829995193078
2864415,2860002,0,4,chocolate,105,FALSE,FALSE,1,34,20.829995193078
2864415,2860002,0,5,chocolate,195,TRUE,TRUE,1,34,20.829995193078
2864415,2860002,0,6,chocolate,195,TRUE,FALSE,1,34,20.829995193078
2864415,2860002,0,7,chocolate,195,TRUE,FALSE,1,34,20.829995193078
2864415,2860002,0,8,chocolate,195,TRUE,FALSE,1,34,20.829995193078
2865538,2860002,0,1,chocolate,200,FALSE,FALSE,1,43,21.8724228190326
2865538,2860002,0,2,chocolate,110,FALSE,FALSE,1,43,21.8724228190326
2865538,2860002,0,3,chocolate,105,FALSE,FALSE,1,43,21.8724228190326
2865538,2860002,0,4,chocolate,120,FALSE,FALSE,1,43,21.8724228190326
2865538,2860002,0,5,chocolate,130,TRUE,TRUE,1,43,21.8724228190326
2865538,2860002,0,6,chocolate,130,TRUE,FALSE,1,43,21.8724228190326
2865538,2860002,0,7,chocolate,130,TRUE,FALSE,1,43,21.8724228190326
2865538,2860002,0,8,chocolate,135,TRUE,FALSE,1,43,21.8724228190326
2865829,2860002,0,1,chocolate,100,FALSE,FALSE,1,50,21.2305720237141
2865829,2860002,0,2,chocolate,100,FALSE,FALSE,1,50,21.2305720237141
2865829,2860002,0,3,chocolate,100,FALSE,FALSE,1,50,21.2305720237141
2865829,2860002,0,4,chocolate,100,FALSE,FALSE,1,50,21.2305720237141
2865829,2860002,0,5,chocolate,100,TRUE,TRUE,1,50,21.2305720237141
2865829,2860002,0,6,chocolate,110,TRUE,FALSE,1,50,21.2305720237141
2865829,2860002,0,7,chocolate,110,TRUE,FALSE,1,50,21.2305720237141
2865829,2860002,0,8,chocolate,100,TRUE,FALSE,1,50,21.2305720237141
2866155,2860003,0,1,chocolate,159,FALSE,FALSE,1,30,22.038567493113
2866155,2860003,0,2,chocolate,110,FALSE,FALSE,1,30,22.038567493113
2866155,2860003,0,3,chocolate,110,FALSE,FALSE,1,30,22.038567493113
2866155,2860003,0,4,chocolate,80,FALSE,FALSE,1,30,22.038567493113
2866155,2860003,0,5,chocolate,80,TRUE,TRUE,1,30,22.038567493113
2866155,2860003,0,6,chocolate,80,TRUE,FALSE,1,30,22.038567493113
2866155,2860003,0,7,chocolate,80,TRUE,FALSE,1,30,22.038567493113
2866155,2860003,0,8,chocolate,80,TRUE,FALSE,1,30,22.038567493113
2866302,2860003,0,1,chocolate,120,FALSE,FALSE,1,40,24.034609838167
2866302,2860003,0,2,chocolate,120,FALSE,FALSE,1,40,24.034609838167
2866302,2860003,0,3,chocolate,120,FALSE,FALSE,1,40,24.034609838167
2866302,2860003,0,4,chocolate,120,FALSE,FALSE,1,40,24.034609838167
2866302,2860003,0,5,chocolate,120,TRUE,TRUE,1,40,24.034609838167
2866302,2860003,0,6,chocolate,120,TRUE,FALSE,1,40,24.034609838167
2866302,2860003,0,7,chocolate,120,TRUE,FALSE,1,40,24.034609838167
2866302,2860003,0,8,chocolate,120,TRUE,FALSE,1,40,24.034609838167
2867188,2860003,0,1,chocolate,20,FALSE,FALSE,1,39,20.703125
2867188,2860003,0,2,chocolate,20,FALSE,FALSE,1,39,20.703125
2867188,2860003,0,3,chocolate,30,FALSE,FALSE,1,39,20.703125
2867188,2860003,0,4,chocolate,20,FALSE,FALSE,1,39,20.703125
2867188,2860003,0,5,chocolate,60,TRUE,TRUE,1,39,20.703125
2867188,2860003,0,6,chocolate,50,TRUE,FALSE,1,39,20.703125
2867188,2860003,0,7,chocolate,40,TRUE,FALSE,1,39,20.703125
2867188,2860003,0,8,chocolate,50,TRUE,FALSE,1,39,20.703125
2867613,2860003,0,1,chocolate,215,FALSE,FALSE,1,43,21.8775510204082
2867613,2860003,0,2,chocolate,175,FALSE,FALSE,1,43,21.8775510204082
2867613,2860003,0,3,chocolate,120,FALSE,FALSE,1,43,21.8775510204082
2867613,2860003,0,4,chocolate,120,FALSE,FALSE,1,43,21.8775510204082
2867613,2860003,0,5,chocolate,215,TRUE,TRUE,1,43,21.8775510204082
2867613,2860003,0,6,chocolate,215,TRUE,FALSE,1,43,21.8775510204082
2867613,2860003,0,7,chocolate,215,TRUE,FALSE,1,43,21.8775510204082
2867613,2860003,0,8,chocolate,215,TRUE,FALSE,1,43,21.8775510204082
2868156,2860004,0,1,chocolate,110,FALSE,FALSE,1,49,21.5138585105239
2868156,2860004,0,2,chocolate,100,FALSE,FALSE,1,49,21.5138585105239
2868156,2860004,0,3,chocolate,100,FALSE,FALSE,1,49,21.5138585105239
2868156,2860004,0,4,chocolate,105,FALSE,FALSE,1,49,21.5138585105239
2868156,2860004,0,5,chocolate,150,TRUE,TRUE,1,49,21.5138585105239
2868156,2860004,0,6,chocolate,120,TRUE,FALSE,1,49,21.5138585105239
2868156,2860004,0,7,chocolate,120,TRUE,FALSE,1,49,21.5138585105239
2868156,2860004,0,8,chocolate,120,TRUE,FALSE,1,49,21.5138585105239
2868919,2860004,0,1,chocolate,178,FALSE,FALSE,1,47,35.5555555555556
2868919,2860004,0,2,chocolate,132,FALSE,FALSE,1,47,35.5555555555556
2868919,2860004,0,3,chocolate,100,FALSE,FALSE,1,47,35.5555555555556
2868919,2860004,0,4,chocolate,100,FALSE,FALSE,1,47,35.5555555555556
2868919,2860004,0,5,chocolate,120,TRUE,TRUE,1,47,35.5555555555556
2868919,2860004,0,6,chocolate,120,TRUE,FALSE,1,47,35.5555555555556
2868919,2860004,0,7,chocolate,120,TRUE,FALSE,1,47,35.5555555555556
2868919,2860004,0,8,chocolate,120,TRUE,FALSE,1,47,35.5555555555556
2869594,2860004,0,1,chocolate,124,FALSE,FALSE,1,52,17.0068027210884
2869594,2860004,0,2,chocolate,114,FALSE,FALSE,1,52,17.0068027210884
2869594,2860004,0,3,chocolate,100,FALSE,FALSE,1,52,17.0068027210884
2869594,2860004,0,4,chocolate,98,FALSE,FALSE,1,52,17.0068027210884
2869594,2860004,0,5,chocolate,128,TRUE,TRUE,1,52,17.0068027210884
2869594,2860004,0,6,chocolate,120,TRUE,FALSE,1,52,17.0068027210884
2869594,2860004,0,7,chocolate,120,TRUE,FALSE,1,52,17.0068027210884
2869594,2860004,0,8,chocolate,120,TRUE,FALSE,1,52,17.0068027210884
2869616,2860004,0,1,chocolate,90,FALSE,FALSE,1,51,24.21875
2869616,2860004,0,2,chocolate,100,FALSE,FALSE,1,51,24.21875
2869616,2860004,0,3,chocolate,100,FALSE,FALSE,1,51,24.21875
2869616,2860004,0,4,chocolate,100,FALSE,FALSE,1,51,24.21875
2869616,2860004,0,5,chocolate,120,TRUE,TRUE,1,51,24.21875
2869616,2860004,0,6,chocolate,125,TRUE,FALSE,1,51,24.21875
2869616,2860004,0,7,chocolate,120,TRUE,FALSE,1,51,24.21875
2869616,2860004,0,8,chocolate,120,TRUE,FALSE,1,51,24.21875
2881961,2880001,1,1,chocolate,110,FALSE,FALSE,0,33,20.5150864789799
2881961,2880001,1,2,chocolate,110,FALSE,FALSE,0,33,20.5150864789799
2881961,2880001,1,3,chocolate,110,FALSE,FALSE,0,33,20.5150864789799
2881961,2880001,1,4,chocolate,110,FALSE,FALSE,0,33,20.5150864789799
2881961,2880001,1,5,chocolate,120,TRUE,TRUE,0,33,20.5150864789799
2881961,2880001,1,6,chocolate,120,TRUE,FALSE,0,33,20.5150864789799
2881961,2880001,1,7,chocolate,120,TRUE,FALSE,0,33,20.5150864789799
2881961,2880001,1,8,chocolate,120,TRUE,FALSE,0,33,20.5150864789799
2882428,2880001,1,1,chocolate,435,FALSE,FALSE,1,29,19.9480597689036
2882428,2880001,1,2,chocolate,501,FALSE,FALSE,1,29,19.9480597689036
2882428,2880001,1,3,chocolate,435,FALSE,FALSE,1,29,19.9480597689036
2882428,2880001,1,4,chocolate,435,FALSE,FALSE,1,29,19.9480597689036
2882428,2880001,1,5,chocolate,458,TRUE,TRUE,1,29,19.9480597689036
2882428,2880001,1,6,chocolate,458,TRUE,FALSE,1,29,19.9480597689036
2882428,2880001,1,7,chocolate,458,TRUE,FALSE,1,29,19.9480597689036
2882428,2880001,1,8,chocolate,458,TRUE,FALSE,1,29,19.9480597689036
2882469,2880001,1,1,chocolate,20,FALSE,FALSE,0,36,23.9394809920521
2882469,2880001,1,2,chocolate,20,FALSE,FALSE,0,36,23.9394809920521
2882469,2880001,1,3,chocolate,20,FALSE,FALSE,0,36,23.9394809920521
2882469,2880001,1,4,chocolate,20,FALSE,FALSE,0,36,23.9394809920521
2882469,2880001,1,5,chocolate,40,TRUE,TRUE,0,36,23.9394809920521
2882469,2880001,1,6,chocolate,40,TRUE,FALSE,0,36,23.9394809920521
2882469,2880001,1,7,chocolate,40,TRUE,FALSE,0,36,23.9394809920521
2882469,2880001,1,8,chocolate,40,TRUE,FALSE,0,36,23.9394809920521
2883569,2880001,1,1,chocolate,100,FALSE,FALSE,0,38,28.734672057202
2883569,2880001,1,2,chocolate,100,FALSE,FALSE,0,38,28.734672057202
2883569,2880001,1,3,chocolate,100,FALSE,FALSE,0,38,28.734672057202
2883569,2880001,1,4,chocolate,100,FALSE,FALSE,0,38,28.734672057202
2883569,2880001,1,5,chocolate,100,TRUE,TRUE,0,38,28.734672057202
2883569,2880001,1,6,chocolate,100,TRUE,FALSE,0,38,28.734672057202
2883569,2880001,1,7,chocolate,100,TRUE,FALSE,0,38,28.734672057202
2883569,2880001,1,8,chocolate,100,TRUE,FALSE,0,38,28.734672057202
2884054,2880002,1,1,chocolate,175,FALSE,FALSE,1,50,21.6441207075963
2884054,2880002,1,2,chocolate,190,FALSE,FALSE,1,50,21.6441207075963
2884054,2880002,1,3,chocolate,170,FALSE,FALSE,1,50,21.6441207075963
2884054,2880002,1,4,chocolate,195,FALSE,FALSE,1,50,21.6441207075963
2884054,2880002,1,5,chocolate,210,TRUE,TRUE,1,50,21.6441207075963
2884054,2880002,1,6,chocolate,220,TRUE,FALSE,1,50,21.6441207075963
2884054,2880002,1,7,chocolate,215,TRUE,FALSE,1,50,21.6441207075963
2884054,2880002,1,8,chocolate,230,TRUE,FALSE,1,50,21.6441207075963
2884415,2880002,1,1,chocolate,90,FALSE,FALSE,0,31,22.8571428571429
2884415,2880002,1,2,chocolate,90,FALSE,FALSE,0,31,22.8571428571429
2884415,2880002,1,3,chocolate,95,FALSE,FALSE,0,31,22.8571428571429
2884415,2880002,1,4,chocolate,90,FALSE,FALSE,0,31,22.8571428571429
2884415,2880002,1,5,chocolate,110,TRUE,TRUE,0,31,22.8571428571429
2884415,2880002,1,6,chocolate,110,TRUE,FALSE,0,31,22.8571428571429
2884415,2880002,1,7,chocolate,110,TRUE,FALSE,0,31,22.8571428571429
2884415,2880002,1,8,chocolate,115,TRUE,FALSE,0,31,22.8571428571429
2885538,2880002,1,1,chocolate,165,FALSE,FALSE,1,31,27.3796646836128
2885538,2880002,1,2,chocolate,165,FALSE,FALSE,1,31,27.3796646836128
2885538,2880002,1,3,chocolate,165,FALSE,FALSE,1,31,27.3796646836128
2885538,2880002,1,4,chocolate,165,FALSE,FALSE,1,31,27.3796646836128
2885538,2880002,1,5,chocolate,195,TRUE,TRUE,1,31,27.3796646836128
2885538,2880002,1,6,chocolate,195,TRUE,FALSE,1,31,27.3796646836128
2885538,2880002,1,7,chocolate,195,TRUE,FALSE,1,31,27.3796646836128
2885538,2880002,1,8,chocolate,195,TRUE,FALSE,1,31,27.3796646836128
2885829,2880002,1,1,chocolate,159,FALSE,FALSE,0,56,28.4081841105685
2885829,2880002,1,2,chocolate,160,FALSE,FALSE,0,56,28.4081841105685
2885829,2880002,1,3,chocolate,169,FALSE,FALSE,0,56,28.4081841105685
2885829,2880002,1,4,chocolate,151,FALSE,FALSE,0,56,28.4081841105685
2885829,2880002,1,5,chocolate,177,TRUE,TRUE,0,56,28.4081841105685
2885829,2880002,1,6,chocolate,180,TRUE,FALSE,0,56,28.4081841105685
2885829,2880002,1,7,chocolate,185,TRUE,FALSE,0,56,28.4081841105685
2885829,2880002,1,8,chocolate,182,TRUE,FALSE,0,56,28.4081841105685
2886155,2880003,1,1,chocolate,105,FALSE,FALSE,0,56,27.1669192713546
2886155,2880003,1,2,chocolate,100,FALSE,FALSE,0,56,27.1669192713546
2886155,2880003,1,3,chocolate,90,FALSE,FALSE,0,56,27.1669192713546
2886155,2880003,1,4,chocolate,85,FALSE,FALSE,0,56,27.1669192713546
2886155,2880003,1,5,chocolate,120,TRUE,TRUE,0,56,27.1669192713546
2886155,2880003,1,6,chocolate,105,TRUE,FALSE,0,56,27.1669192713546
2886155,2880003,1,7,chocolate,104,TRUE,FALSE,0,56,27.1669192713546
2886155,2880003,1,8,chocolate,103,TRUE,FALSE,0,56,27.1669192713546
2886302,2880003,1,1,chocolate,150,FALSE,FALSE,1,24,28.125
2886302,2880003,1,2,chocolate,150,FALSE,FALSE,1,24,28.125
2886302,2880003,1,3,chocolate,150,FALSE,FALSE,1,24,28.125
2886302,2880003,1,4,chocolate,150,FALSE,FALSE,1,24,28.125
2886302,2880003,1,5,chocolate,180,TRUE,TRUE,1,24,28.125
2886302,2880003,1,6,chocolate,180,TRUE,FALSE,1,24,28.125
2886302,2880003,1,7,chocolate,180,TRUE,FALSE,1,24,28.125
2886302,2880003,1,8,chocolate,180,TRUE,FALSE,1,24,28.125
2887188,2880003,1,1,chocolate,113,FALSE,FALSE,1,25,26.0261748958953
2887188,2880003,1,2,chocolate,113,FALSE,FALSE,1,25,26.0261748958953
2887188,2880003,1,3,chocolate,113,FALSE,FALSE,1,25,26.0261748958953
2887188,2880003,1,4,chocolate,113,FALSE,FALSE,1,25,26.0261748958953
2887188,2880003,1,5,chocolate,208,TRUE,TRUE,1,25,26.0261748958953
2887188,2880003,1,6,chocolate,200,TRUE,FALSE,1,25,26.0261748958953
2887188,2880003,1,7,chocolate,200,TRUE,FALSE,1,25,26.0261748958953
2887188,2880003,1,8,chocolate,200,TRUE,FALSE,1,25,26.0261748958953
2887613,2880003,1,1,chocolate,100,FALSE,FALSE,1,53,29.296875
2887613,2880003,1,2,chocolate,50,FALSE,FALSE,1,53,29.296875
2887613,2880003,1,3,chocolate,40,FALSE,FALSE,1,53,29.296875
2887613,2880003,1,4,chocolate,50,FALSE,FALSE,1,53,29.296875
2887613,2880003,1,5,chocolate,100,TRUE,TRUE,1,53,29.296875
2887613,2880003,1,6,chocolate,50,TRUE,FALSE,1,53,29.296875
2887613,2880003,1,7,chocolate,30,TRUE,FALSE,1,53,29.296875
2887613,2880003,1,8,chocolate,40,TRUE,FALSE,1,53,29.296875
2888156,2880004,1,1,chocolate,185,FALSE,FALSE,1,48,25.0995015956112
2888156,2880004,1,2,chocolate,185,FALSE,FALSE,1,48,25.0995015956112
2888156,2880004,1,3,chocolate,185,FALSE,FALSE,1,48,25.0995015956112
2888156,2880004,1,4,chocolate,185,FALSE,FALSE,1,48,25.0995015956112
2888156,2880004,1,5,chocolate,255,TRUE,TRUE,1,48,25.0995015956112
2888156,2880004,1,6,chocolate,255,TRUE,FALSE,1,48,25.0995015956112
2888156,2880004,1,7,chocolate,255,TRUE,FALSE,1,48,25.0995015956112
2888156,2880004,1,8,chocolate,255,TRUE,FALSE,1,48,25.0995015956112
2888919,2880004,1,1,chocolate,95,FALSE,FALSE,1,56,19.1953027964922
2888919,2880004,1,2,chocolate,99,FALSE,FALSE,1,56,19.1953027964922
2888919,2880004,1,3,chocolate,102,FALSE,FALSE,1,56,19.1953027964922
2888919,2880004,1,4,chocolate,98,FALSE,FALSE,1,56,19.1953027964922
2888919,2880004,1,5,chocolate,105,TRUE,TRUE,1,56,19.1953027964922
2888919,2880004,1,6,chocolate,110,TRUE,FALSE,1,56,19.1953027964922
2888919,2880004,1,7,chocolate,114,TRUE,FALSE,1,56,19.1953027964922
2888919,2880004,1,8,chocolate,120,TRUE,FALSE,1,56,19.1953027964922
2889594,2880004,1,1,chocolate,595,FALSE,FALSE,1,56,22.8373702422145
2889594,2880004,1,2,chocolate,612,FALSE,FALSE,1,56,22.8373702422145
2889594,2880004,1,3,chocolate,610,FALSE,FALSE,1,56,22.8373702422145
2889594,2880004,1,4,chocolate,610,FALSE,FALSE,1,56,22.8373702422145
2889594,2880004,1,5,chocolate,622,TRUE,TRUE,1,56,22.8373702422145
2889594,2880004,1,6,chocolate,640,TRUE,FALSE,1,56,22.8373702422145
2889594,2880004,1,7,chocolate,640,TRUE,FALSE,1,56,22.8373702422145
2889594,2880004,1,8,chocolate,640,TRUE,FALSE,1,56,22.8373702422145
2889616,2880004,1,1,chocolate,210,FALSE,FALSE,0,37,22.8373702422145
2889616,2880004,1,2,chocolate,210,FALSE,FALSE,0,37,22.8373702422145
2889616,2880004,1,3,chocolate,210,FALSE,FALSE,0,37,22.8373702422145
2889616,2880004,1,4,chocolate,200,FALSE,FALSE,0,37,22.8373702422145
2889616,2880004,1,5,chocolate,240,TRUE,TRUE,0,37,22.8373702422145
2889616,2880004,1,6,chocolate,250,TRUE,FALSE,0,37,22.8373702422145
2889616,2880004,1,7,chocolate,240,TRUE,FALSE,0,37,22.8373702422145
2889616,2880004,1,8,chocolate,250,TRUE,FALSE,0,37,22.8373702422145
2911961,2910001,1,1,wine,400,FALSE,FALSE,0,47,29.0367377856331
2911961,2910001,1,2,wine,450,FALSE,FALSE,0,47,29.0367377856331
2911961,2910001,1,3,wine,400,FALSE,FALSE,0,47,29.0367377856331
2911961,2910001,1,4,wine,400,FALSE,FALSE,0,47,29.0367377856331
2911961,2910001,1,5,wine,600,TRUE,TRUE,0,47,29.0367377856331
2911961,2910001,1,6,wine,650,TRUE,FALSE,0,47,29.0367377856331
2911961,2910001,1,7,wine,600,TRUE,FALSE,0,47,29.0367377856331
2911961,2910001,1,8,wine,600,TRUE,FALSE,0,47,29.0367377856331
2912428,2910001,1,1,wine,190,FALSE,FALSE,1,26,21.7993079584775
2912428,2910001,1,2,wine,190,FALSE,FALSE,1,26,21.7993079584775
2912428,2910001,1,3,wine,190,FALSE,FALSE,1,26,21.7993079584775
2912428,2910001,1,4,wine,190,FALSE,FALSE,1,26,21.7993079584775
2912428,2910001,1,5,wine,190,TRUE,TRUE,1,26,21.7993079584775
2912428,2910001,1,6,wine,190,TRUE,FALSE,1,26,21.7993079584775
2912428,2910001,1,7,wine,190,TRUE,FALSE,1,26,21.7993079584775
2912428,2910001,1,8,wine,190,TRUE,FALSE,1,26,21.7993079584775
2912469,2910001,1,1,wine,500,FALSE,FALSE,1,68,23.1404958677686
2912469,2910001,1,2,wine,500,FALSE,FALSE,1,68,23.1404958677686
2912469,2910001,1,3,wine,550,FALSE,FALSE,1,68,23.1404958677686
2912469,2910001,1,4,wine,575,FALSE,FALSE,1,68,23.1404958677686
2912469,2910001,1,5,wine,550,TRUE,TRUE,1,68,23.1404958677686
2912469,2910001,1,6,wine,475,TRUE,FALSE,1,68,23.1404958677686
2912469,2910001,1,7,wine,475,TRUE,FALSE,1,68,23.1404958677686
2912469,2910001,1,8,wine,480,TRUE,FALSE,1,68,23.1404958677686
2913569,2910001,1,1,wine,345,FALSE,FALSE,0,56,25.1023913330691
2913569,2910001,1,2,wine,320,FALSE,FALSE,0,56,25.1023913330691
2913569,2910001,1,3,wine,310,FALSE,FALSE,0,56,25.1023913330691
2913569,2910001,1,4,wine,290,FALSE,FALSE,0,56,25.1023913330691
2913569,2910001,1,5,wine,300,TRUE,TRUE,0,56,25.1023913330691
2913569,2910001,1,6,wine,310,TRUE,FALSE,0,56,25.1023913330691
2913569,2910001,1,7,wine,320,TRUE,FALSE,0,56,25.1023913330691
2913569,2910001,1,8,wine,330,TRUE,FALSE,0,56,25.1023913330691
2914054,2910002,1,1,wine,410,FALSE,FALSE,1,43,20.6611570247934
2914054,2910002,1,2,wine,400,FALSE,FALSE,1,43,20.6611570247934
2914054,2910002,1,3,wine,415,FALSE,FALSE,1,43,20.6611570247934
2914054,2910002,1,4,wine,440,FALSE,FALSE,1,43,20.6611570247934
2914054,2910002,1,5,wine,580,TRUE,TRUE,1,43,20.6611570247934
2914054,2910002,1,6,wine,586,TRUE,FALSE,1,43,20.6611570247934
2914054,2910002,1,7,wine,587,TRUE,FALSE,1,43,20.6611570247934
2914054,2910002,1,8,wine,588,TRUE,FALSE,1,43,20.6611570247934
2914415,2910002,1,1,wine,350,FALSE,FALSE,1,30,22.4081789853296
2914415,2910002,1,2,wine,350,FALSE,FALSE,1,30,22.4081789853296
2914415,2910002,1,3,wine,350,FALSE,FALSE,1,30,22.4081789853296
2914415,2910002,1,4,wine,500,FALSE,FALSE,1,30,22.4081789853296
2914415,2910002,1,5,wine,700,TRUE,TRUE,1,30,22.4081789853296
2914415,2910002,1,6,wine,700,TRUE,FALSE,1,30,22.4081789853296
2914415,2910002,1,7,wine,700,TRUE,FALSE,1,30,22.4081789853296
2914415,2910002,1,8,wine,700,TRUE,FALSE,1,30,22.4081789853296
2915538,2910002,1,1,wine,452,FALSE,FALSE,0,63,25.5593291551416
2915538,2910002,1,2,wine,485,FALSE,FALSE,0,63,25.5593291551416
2915538,2910002,1,3,wine,425,FALSE,FALSE,0,63,25.5593291551416
2915538,2910002,1,4,wine,435,FALSE,FALSE,0,63,25.5593291551416
2915538,2910002,1,5,wine,530,TRUE,TRUE,0,63,25.5593291551416
2915538,2910002,1,6,wine,540,TRUE,FALSE,0,63,25.5593291551416
2915538,2910002,1,7,wine,535,TRUE,FALSE,0,63,25.5593291551416
2915538,2910002,1,8,wine,550,TRUE,FALSE,0,63,25.5593291551416
2915829,2910002,1,1,wine,350,FALSE,FALSE,1,55,24.8357634994392
2915829,2910002,1,2,wine,350,FALSE,FALSE,1,55,24.8357634994392
2915829,2910002,1,3,wine,350,FALSE,FALSE,1,55,24.8357634994392
2915829,2910002,1,4,wine,350,FALSE,FALSE,1,55,24.8357634994392
2915829,2910002,1,5,wine,500,TRUE,TRUE,1,55,24.8357634994392
2915829,2910002,1,6,wine,500,TRUE,FALSE,1,55,24.8357634994392
2915829,2910002,1,7,wine,500,TRUE,FALSE,1,55,24.8357634994392
2915829,2910002,1,8,wine,500,TRUE,FALSE,1,55,24.8357634994392
2916155,2910003,1,1,wine,230,FALSE,FALSE,1,65,24.3823729785937
2916155,2910003,1,2,wine,250,FALSE,FALSE,1,65,24.3823729785937
2916155,2910003,1,3,wine,250,FALSE,FALSE,1,65,24.3823729785937
2916155,2910003,1,4,wine,250,FALSE,FALSE,1,65,24.3823729785937
2916155,2910003,1,5,wine,250,TRUE,TRUE,1,65,24.3823729785937
2916155,2910003,1,6,wine,260,TRUE,FALSE,1,65,24.3823729785937
2916155,2910003,1,7,wine,260,TRUE,FALSE,1,65,24.3823729785937
2916155,2910003,1,8,wine,260,TRUE,FALSE,1,65,24.3823729785937
2916302,2910003,1,1,wine,110,FALSE,FALSE,0,57,21.4346093466973
2916302,2910003,1,2,wine,105,FALSE,FALSE,0,57,21.4346093466973
2916302,2910003,1,3,wine,105,FALSE,FALSE,0,57,21.4346093466973
2916302,2910003,1,4,wine,105,FALSE,FALSE,0,57,21.4346093466973
2916302,2910003,1,5,wine,105,TRUE,TRUE,0,57,21.4346093466973
2916302,2910003,1,6,wine,105,TRUE,FALSE,0,57,21.4346093466973
2916302,2910003,1,7,wine,105,TRUE,FALSE,0,57,21.4346093466973
2916302,2910003,1,8,wine,105,TRUE,FALSE,0,57,21.4346093466973
2917188,2910003,1,1,wine,215,FALSE,FALSE,1,33,34.6020761245675
2917188,2910003,1,2,wine,200,FALSE,FALSE,1,33,34.6020761245675
2917188,2910003,1,3,wine,240,FALSE,FALSE,1,33,34.6020761245675
2917188,2910003,1,4,wine,150,FALSE,FALSE,1,33,34.6020761245675
2917188,2910003,1,5,wine,230,TRUE,TRUE,1,33,34.6020761245675
2917188,2910003,1,6,wine,200,TRUE,FALSE,1,33,34.6020761245675
2917188,2910003,1,7,wine,200,TRUE,FALSE,1,33,34.6020761245675
2917188,2910003,1,8,wine,200,TRUE,FALSE,1,33,34.6020761245675
2917613,2910003,1,1,wine,250,FALSE,FALSE,1,48,20.5049339997437
2917613,2910003,1,2,wine,200,FALSE,FALSE,1,48,20.5049339997437
2917613,2910003,1,3,wine,200,FALSE,FALSE,1,48,20.5049339997437
2917613,2910003,1,4,wine,250,FALSE,FALSE,1,48,20.5049339997437
2917613,2910003,1,5,wine,250,TRUE,TRUE,1,48,20.5049339997437
2917613,2910003,1,6,wine,250,TRUE,FALSE,1,48,20.5049339997437
2917613,2910003,1,7,wine,250,TRUE,FALSE,1,48,20.5049339997437
2917613,2910003,1,8,wine,250,TRUE,FALSE,1,48,20.5049339997437
2918156,2910004,1,1,wine,210,FALSE,FALSE,0,64,32.8466063483532
2918156,2910004,1,2,wine,205,FALSE,FALSE,0,64,32.8466063483532
2918156,2910004,1,3,wine,200,FALSE,FALSE,0,64,32.8466063483532
2918156,2910004,1,4,wine,200,FALSE,FALSE,0,64,32.8466063483532
2918156,2910004,1,5,wine,195,TRUE,TRUE,0,64,32.8466063483532
2918156,2910004,1,6,wine,200,TRUE,FALSE,0,64,32.8466063483532
2918156,2910004,1,7,wine,200,TRUE,FALSE,0,64,32.8466063483532
2918156,2910004,1,8,wine,195,TRUE,FALSE,0,64,32.8466063483532
2918919,2910004,1,1,wine,250,FALSE,FALSE,1,35,20.7612456747405
2918919,2910004,1,2,wine,250,FALSE,FALSE,1,35,20.7612456747405
2918919,2910004,1,3,wine,250,FALSE,FALSE,1,35,20.7612456747405
2918919,2910004,1,4,wine,200,FALSE,FALSE,1,35,20.7612456747405
2918919,2910004,1,5,wine,250,TRUE,TRUE,1,35,20.7612456747405
2918919,2910004,1,6,wine,250,TRUE,FALSE,1,35,20.7612456747405
2918919,2910004,1,7,wine,250,TRUE,FALSE,1,35,20.7612456747405
2918919,2910004,1,8,wine,250,TRUE,FALSE,1,35,20.7612456747405
2919594,2910004,1,1,wine,229,FALSE,FALSE,0,40,19.5918367346939
2919594,2910004,1,2,wine,229,FALSE,FALSE,0,40,19.5918367346939
2919594,2910004,1,3,wine,219,FALSE,FALSE,0,40,19.5918367346939
2919594,2910004,1,4,wine,219,FALSE,FALSE,0,40,19.5918367346939
2919594,2910004,1,5,wine,229,TRUE,TRUE,0,40,19.5918367346939
2919594,2910004,1,6,wine,229,TRUE,FALSE,0,40,19.5918367346939
2919594,2910004,1,7,wine,229,TRUE,FALSE,0,40,19.5918367346939
2919594,2910004,1,8,wine,229,TRUE,FALSE,0,40,19.5918367346939
2919616,2910004,1,1,wine,200,FALSE,FALSE,0,55,22.4913494809689
2919616,2910004,1,2,wine,190,FALSE,FALSE,0,55,22.4913494809689
2919616,2910004,1,3,wine,180,FALSE,FALSE,0,55,22.4913494809689
2919616,2910004,1,4,wine,190,FALSE,FALSE,0,55,22.4913494809689
2919616,2910004,1,5,wine,250,TRUE,TRUE,0,55,22.4913494809689
2919616,2910004,1,6,wine,260,TRUE,FALSE,0,55,22.4913494809689
2919616,2910004,1,7,wine,250,TRUE,FALSE,0,55,22.4913494809689
2919616,2910004,1,8,wine,250,TRUE,FALSE,0,55,22.4913494809689
2931961,2930001,0,1,wine,90,FALSE,FALSE,1,31,16.8061342389972
2931961,2930001,0,2,wine,100,FALSE,FALSE,1,31,16.8061342389972
2931961,2930001,0,3,wine,100,FALSE,FALSE,1,31,16.8061342389972
2931961,2930001,0,4,wine,100,FALSE,FALSE,1,31,16.8061342389972
2931961,2930001,0,5,wine,200,TRUE,TRUE,1,31,16.8061342389972
2931961,2930001,0,6,wine,200,TRUE,FALSE,1,31,16.8061342389972
2931961,2930001,0,7,wine,200,TRUE,FALSE,1,31,16.8061342389972
2931961,2930001,0,8,wine,210,TRUE,FALSE,1,31,16.8061342389972
2932428,2930001,0,1,wine,252,FALSE,FALSE,1,59,26.346494034401
2932428,2930001,0,2,wine,180,FALSE,FALSE,1,59,26.346494034401
2932428,2930001,0,3,wine,155,FALSE,FALSE,1,59,26.346494034401
2932428,2930001,0,4,wine,150,FALSE,FALSE,1,59,26.346494034401
2932428,2930001,0,5,wine,150,TRUE,TRUE,1,59,26.346494034401
2932428,2930001,0,6,wine,200,TRUE,FALSE,1,59,26.346494034401
2932428,2930001,0,7,wine,200,TRUE,FALSE,1,59,26.346494034401
2932428,2930001,0,8,wine,200,TRUE,FALSE,1,59,26.346494034401
2932469,2930001,0,1,wine,250,FALSE,FALSE,1,17,18.3654729109275
2932469,2930001,0,2,wine,250,FALSE,FALSE,1,17,18.3654729109275
2932469,2930001,0,3,wine,250,FALSE,FALSE,1,17,18.3654729109275
2932469,2930001,0,4,wine,250,FALSE,FALSE,1,17,18.3654729109275
2932469,2930001,0,5,wine,250,TRUE,TRUE,1,17,18.3654729109275
2932469,2930001,0,6,wine,250,TRUE,FALSE,1,17,18.3654729109275
2932469,2930001,0,7,wine,250,TRUE,FALSE,1,17,18.3654729109275
2932469,2930001,0,8,wine,250,TRUE,FALSE,1,17,18.3654729109275
2933569,2930001,0,1,wine,100,FALSE,FALSE,1,37,19.7055324211779
2933569,2930001,0,2,wine,100,FALSE,FALSE,1,37,19.7055324211779
2933569,2930001,0,3,wine,100,FALSE,FALSE,1,37,19.7055324211779
2933569,2930001,0,4,wine,100,FALSE,FALSE,1,37,19.7055324211779
2933569,2930001,0,5,wine,400,TRUE,TRUE,1,37,19.7055324211779
2933569,2930001,0,6,wine,400,TRUE,FALSE,1,37,19.7055324211779
2933569,2930001,0,7,wine,400,TRUE,FALSE,1,37,19.7055324211779
2933569,2930001,0,8,wine,400,TRUE,FALSE,1,37,19.7055324211779
2934054,2930002,0,1,wine,350,FALSE,FALSE,0,31,22.2222222222222
2934054,2930002,0,2,wine,350,FALSE,FALSE,0,31,22.2222222222222
2934054,2930002,0,3,wine,340,FALSE,FALSE,0,31,22.2222222222222
2934054,2930002,0,4,wine,340,FALSE,FALSE,0,31,22.2222222222222
2934054,2930002,0,5,wine,380,TRUE,TRUE,0,31,22.2222222222222
2934054,2930002,0,6,wine,370,TRUE,FALSE,0,31,22.2222222222222
2934054,2930002,0,7,wine,370,TRUE,FALSE,0,31,22.2222222222222
2934054,2930002,0,8,wine,370,TRUE,FALSE,0,31,22.2222222222222
2934415,2930002,0,1,wine,250,FALSE,FALSE,0,58,30.7173999207293
2934415,2930002,0,2,wine,300,FALSE,FALSE,0,58,30.7173999207293
2934415,2930002,0,3,wine,300,FALSE,FALSE,0,58,30.7173999207293
2934415,2930002,0,4,wine,310,FALSE,FALSE,0,58,30.7173999207293
2934415,2930002,0,5,wine,350,TRUE,TRUE,0,58,30.7173999207293
2934415,2930002,0,6,wine,400,TRUE,FALSE,0,58,30.7173999207293
2934415,2930002,0,7,wine,400,TRUE,FALSE,0,58,30.7173999207293
2934415,2930002,0,8,wine,380,TRUE,FALSE,0,58,30.7173999207293
2935538,2930002,0,1,wine,500,FALSE,FALSE,1,56,21.484375
2935538,2930002,0,2,wine,400,FALSE,FALSE,1,56,21.484375
2935538,2930002,0,3,wine,390,FALSE,FALSE,1,56,21.484375
2935538,2930002,0,4,wine,390,FALSE,FALSE,1,56,21.484375
2935538,2930002,0,5,wine,500,TRUE,TRUE,1,56,21.484375
2935538,2930002,0,6,wine,400,TRUE,FALSE,1,56,21.484375
2935538,2930002,0,7,wine,400,TRUE,FALSE,1,56,21.484375
2935538,2930002,0,8,wine,450,TRUE,FALSE,1,56,21.484375
2935829,2930002,0,1,wine,380,FALSE,FALSE,1,47,27.7176852352623
2935829,2930002,0,2,wine,380,FALSE,FALSE,1,47,27.7176852352623
2935829,2930002,0,3,wine,360,FALSE,FALSE,1,47,27.7176852352623
2935829,2930002,0,4,wine,300,FALSE,FALSE,1,47,27.7176852352623
2935829,2930002,0,5,wine,380,TRUE,TRUE,1,47,27.7176852352623
2935829,2930002,0,6,wine,380,TRUE,FALSE,1,47,27.7176852352623
2935829,2930002,0,7,wine,360,TRUE,FALSE,1,47,27.7176852352623
2935829,2930002,0,8,wine,380,TRUE,FALSE,1,47,27.7176852352623
2936155,2930003,0,1,wine,425,FALSE,FALSE,1,50,31.25
2936155,2930003,0,2,wine,425,FALSE,FALSE,1,50,31.25
2936155,2930003,0,3,wine,425,FALSE,FALSE,1,50,31.25
2936155,2930003,0,4,wine,425,FALSE,FALSE,1,50,31.25
2936155,2930003,0,5,wine,425,TRUE,TRUE,1,50,31.25
2936155,2930003,0,6,wine,425,TRUE,FALSE,1,50,31.25
2936155,2930003,0,7,wine,425,TRUE,FALSE,1,50,31.25
2936155,2930003,0,8,wine,425,TRUE,FALSE,1,50,31.25
2936302,2930003,0,1,wine,450,FALSE,FALSE,1,52,20.0288415318058
2936302,2930003,0,2,wine,450,FALSE,FALSE,1,52,20.0288415318058
2936302,2930003,0,3,wine,450,FALSE,FALSE,1,52,20.0288415318058
2936302,2930003,0,4,wine,450,FALSE,FALSE,1,52,20.0288415318058
2936302,2930003,0,5,wine,450,TRUE,TRUE,1,52,20.0288415318058
2936302,2930003,0,6,wine,450,TRUE,FALSE,1,52,20.0288415318058
2936302,2930003,0,7,wine,450,TRUE,FALSE,1,52,20.0288415318058
2936302,2930003,0,8,wine,450,TRUE,FALSE,1,52,20.0288415318058
2937188,2930003,0,1,wine,350,FALSE,FALSE,1,58,25.9645421720962
2937188,2930003,0,2,wine,380,FALSE,FALSE,1,58,25.9645421720962
2937188,2930003,0,3,wine,380,FALSE,FALSE,1,58,25.9645421720962
2937188,2930003,0,4,wine,380,FALSE,FALSE,1,58,25.9645421720962
2937188,2930003,0,5,wine,400,TRUE,TRUE,1,58,25.9645421720962
2937188,2930003,0,6,wine,400,TRUE,FALSE,1,58,25.9645421720962
2937188,2930003,0,7,wine,400,TRUE,FALSE,1,58,25.9645421720962
2937188,2930003,0,8,wine,400,TRUE,FALSE,1,58,25.9645421720962
2937613,2930003,0,1,wine,90,FALSE,FALSE,1,29,24.1632653061224
2937613,2930003,0,2,wine,100,FALSE,FALSE,1,29,24.1632653061224
2937613,2930003,0,3,wine,110,FALSE,FALSE,1,29,24.1632653061224
2937613,2930003,0,4,wine,110,FALSE,FALSE,1,29,24.1632653061224
2937613,2930003,0,5,wine,200,TRUE,TRUE,1,29,24.1632653061224
2937613,2930003,0,6,wine,210,TRUE,FALSE,1,29,24.1632653061224
2937613,2930003,0,7,wine,210,TRUE,FALSE,1,29,24.1632653061224
2937613,2930003,0,8,wine,210,TRUE,FALSE,1,29,24.1632653061224
2938156,2930004,0,1,wine,150,FALSE,FALSE,0,32,24.6913580246914
2938156,2930004,0,2,wine,100,FALSE,FALSE,0,32,24.6913580246914
2938156,2930004,0,3,wine,125,FALSE,FALSE,0,32,24.6913580246914
2938156,2930004,0,4,wine,75,FALSE,FALSE,0,32,24.6913580246914
2938156,2930004,0,5,wine,120,TRUE,TRUE,0,32,24.6913580246914
2938156,2930004,0,6,wine,110,TRUE,FALSE,0,32,24.6913580246914
2938156,2930004,0,7,wine,100,TRUE,FALSE,0,32,24.6913580246914
2938156,2930004,0,8,wine,100,TRUE,FALSE,0,32,24.6913580246914
2938919,2930004,0,1,wine,325,FALSE,FALSE,1,35,20.2448979591837
2938919,2930004,0,2,wine,265,FALSE,FALSE,1,35,20.2448979591837
2938919,2930004,0,3,wine,265,FALSE,FALSE,1,35,20.2448979591837
2938919,2930004,0,4,wine,265,FALSE,FALSE,1,35,20.2448979591837
2938919,2930004,0,5,wine,265,TRUE,TRUE,1,35,20.2448979591837
2938919,2930004,0,6,wine,265,TRUE,FALSE,1,35,20.2448979591837
2938919,2930004,0,7,wine,265,TRUE,FALSE,1,35,20.2448979591837
2938919,2930004,0,8,wine,265,TRUE,FALSE,1,35,20.2448979591837
2939594,2930004,0,1,wine,150,FALSE,FALSE,1,43,23.6244474927602
2939594,2930004,0,2,wine,200,FALSE,FALSE,1,43,23.6244474927602
2939594,2930004,0,3,wine,100,FALSE,FALSE,1,43,23.6244474927602
2939594,2930004,0,4,wine,100,FALSE,FALSE,1,43,23.6244474927602
2939594,2930004,0,5,wine,100,TRUE,TRUE,1,43,23.6244474927602
2939594,2930004,0,6,wine,100,TRUE,FALSE,1,43,23.6244474927602
2939594,2930004,0,7,wine,100,TRUE,FALSE,1,43,23.6244474927602
2939594,2930004,0,8,wine,100,TRUE,FALSE,1,43,23.6244474927602
2939616,2930004,0,1,wine,385,FALSE,FALSE,1,58,33.3333333333333
2939616,2930004,0,2,wine,320,FALSE,FALSE,1,58,33.3333333333333
2939616,2930004,0,3,wine,305,FALSE,FALSE,1,58,33.3333333333333
2939616,2930004,0,4,wine,305,FALSE,FALSE,1,58,33.3333333333333
2939616,2930004,0,5,wine,365,TRUE,TRUE,1,58,33.3333333333333
2939616,2930004,0,6,wine,365,TRUE,FALSE,1,58,33.3333333333333
2939616,2930004,0,7,wine,365,TRUE,FALSE,1,58,33.3333333333333
2939616,2930004,0,8,wine,365,TRUE,FALSE,1,58,33.3333333333333
2941961,2940001,0,1,wine,470,FALSE,FALSE,1,47,19.9480597689036
2941961,2940001,0,2,wine,525,FALSE,FALSE,1,47,19.9480597689036
2941961,2940001,0,3,wine,475,FALSE,FALSE,1,47,19.9480597689036
2941961,2940001,0,4,wine,425,FALSE,FALSE,1,47,19.9480597689036
2941961,2940001,0,5,wine,630,TRUE,TRUE,1,47,19.9480597689036
2941961,2940001,0,6,wine,525,TRUE,FALSE,1,47,19.9480597689036
2941961,2940001,0,7,wine,485,TRUE,FALSE,1,47,19.9480597689036
2941961,2940001,0,8,wine,485,TRUE,FALSE,1,47,19.9480597689036
2942428,2940001,0,1,wine,400,FALSE,FALSE,0,25,25.5040403769229
2942428,2940001,0,2,wine,400,FALSE,FALSE,0,25,25.5040403769229
2942428,2940001,0,3,wine,450,FALSE,FALSE,0,25,25.5040403769229
2942428,2940001,0,4,wine,400,FALSE,FALSE,0,25,25.5040403769229
2942428,2940001,0,5,wine,500,TRUE,TRUE,0,25,25.5040403769229
2942428,2940001,0,6,wine,500,TRUE,FALSE,0,25,25.5040403769229
2942428,2940001,0,7,wine,475,TRUE,FALSE,0,25,25.5040403769229
2942428,2940001,0,8,wine,500,TRUE,FALSE,0,25,25.5040403769229
2942469,2940001,0,1,wine,350,FALSE,FALSE,1,51,25.2825698988697
2942469,2940001,0,2,wine,360,FALSE,FALSE,1,51,25.2825698988697
2942469,2940001,0,3,wine,360,FALSE,FALSE,1,51,25.2825698988697
2942469,2940001,0,4,wine,360,FALSE,FALSE,1,51,25.2825698988697
2942469,2940001,0,5,wine,450,TRUE,TRUE,1,51,25.2825698988697
2942469,2940001,0,6,wine,450,TRUE,FALSE,1,51,25.2825698988697
2942469,2940001,0,7,wine,450,TRUE,FALSE,1,51,25.2825698988697
2942469,2940001,0,8,wine,450,TRUE,FALSE,1,51,25.2825698988697
2943569,2940001,0,1,wine,595,FALSE,FALSE,0,46,25.8805706350208
2943569,2940001,0,2,wine,530,FALSE,FALSE,0,46,25.8805706350208
2943569,2940001,0,3,wine,495,FALSE,FALSE,0,46,25.8805706350208
2943569,2940001,0,4,wine,480,FALSE,FALSE,0,46,25.8805706350208
2943569,2940001,0,5,wine,510,TRUE,TRUE,0,46,25.8805706350208
2943569,2940001,0,6,wine,530,TRUE,FALSE,0,46,25.8805706350208
2943569,2940001,0,7,wine,530,TRUE,FALSE,0,46,25.8805706350208
2943569,2940001,0,8,wine,510,TRUE,FALSE,0,46,25.8805706350208
2944054,2940002,0,1,wine,210,FALSE,FALSE,1,52,24.3910588392529
2944054,2940002,0,2,wine,105,FALSE,FALSE,1,52,24.3910588392529
2944054,2940002,0,3,wine,100,FALSE,FALSE,1,52,24.3910588392529
2944054,2940002,0,4,wine,100,FALSE,FALSE,1,52,24.3910588392529
2944054,2940002,0,5,wine,100,TRUE,TRUE,1,52,24.3910588392529
2944054,2940002,0,6,wine,100,TRUE,FALSE,1,52,24.3910588392529
2944054,2940002,0,7,wine,100,TRUE,FALSE,1,52,24.3910588392529
2944054,2940002,0,8,wine,100,TRUE,FALSE,1,52,24.3910588392529
2944415,2940002,0,1,wine,50,FALSE,FALSE,1,29,24.8590735618501
2944415,2940002,0,2,wine,50,FALSE,FALSE,1,29,24.8590735618501
2944415,2940002,0,3,wine,50,FALSE,FALSE,1,29,24.8590735618501
2944415,2940002,0,4,wine,50,FALSE,FALSE,1,29,24.8590735618501
2944415,2940002,0,5,wine,80,TRUE,TRUE,1,29,24.8590735618501
2944415,2940002,0,6,wine,50,TRUE,FALSE,1,29,24.8590735618501
2944415,2940002,0,7,wine,50,TRUE,FALSE,1,29,24.8590735618501
2944415,2940002,0,8,wine,50,TRUE,FALSE,1,29,24.8590735618501
2945538,2940002,0,1,wine,125,FALSE,FALSE,1,44,25.5937370619895
2945538,2940002,0,2,wine,150,FALSE,FALSE,1,44,25.5937370619895
2945538,2940002,0,3,wine,105,FALSE,FALSE,1,44,25.5937370619895
2945538,2940002,0,4,wine,100,FALSE,FALSE,1,44,25.5937370619895
2945538,2940002,0,5,wine,50,TRUE,TRUE,1,44,25.5937370619895
2945538,2940002,0,6,wine,80,TRUE,FALSE,1,44,25.5937370619895
2945538,2940002,0,7,wine,50,TRUE,FALSE,1,44,25.5937370619895
2945538,2940002,0,8,wine,50,TRUE,FALSE,1,44,25.5937370619895
2945829,2940002,0,1,wine,180,FALSE,FALSE,1,39,18.75
2945829,2940002,0,2,wine,150,FALSE,FALSE,1,39,18.75
2945829,2940002,0,3,wine,100,FALSE,FALSE,1,39,18.75
2945829,2940002,0,4,wine,100,FALSE,FALSE,1,39,18.75
2945829,2940002,0,5,wine,100,TRUE,TRUE,1,39,18.75
2945829,2940002,0,6,wine,100,TRUE,FALSE,1,39,18.75
2945829,2940002,0,7,wine,100,TRUE,FALSE,1,39,18.75
2945829,2940002,0,8,wine,80,TRUE,FALSE,1,39,18.75
2946155,2940003,0,1,wine,150,FALSE,FALSE,0,52,24.9134948096886
2946155,2940003,0,2,wine,150,FALSE,FALSE,0,52,24.9134948096886
2946155,2940003,0,3,wine,160,FALSE,FALSE,0,52,24.9134948096886
2946155,2940003,0,4,wine,160,FALSE,FALSE,0,52,24.9134948096886
2946155,2940003,0,5,wine,200,TRUE,TRUE,0,52,24.9134948096886
2946155,2940003,0,6,wine,220,TRUE,FALSE,0,52,24.9134948096886
2946155,2940003,0,7,wine,230,TRUE,FALSE,0,52,24.9134948096886
2946155,2940003,0,8,wine,240,TRUE,FALSE,0,52,24.9134948096886
2946302,2940003,0,1,wine,100,FALSE,FALSE,1,29,25.0995015956112
2946302,2940003,0,2,wine,100,FALSE,FALSE,1,29,25.0995015956112
2946302,2940003,0,3,wine,100,FALSE,FALSE,1,29,25.0995015956112
2946302,2940003,0,4,wine,100,FALSE,FALSE,1,29,25.0995015956112
2946302,2940003,0,5,wine,120,TRUE,TRUE,1,29,25.0995015956112
2946302,2940003,0,6,wine,120,TRUE,FALSE,1,29,25.0995015956112
2946302,2940003,0,7,wine,120,TRUE,FALSE,1,29,25.0995015956112
2946302,2940003,0,8,wine,120,TRUE,FALSE,1,29,25.0995015956112
2947188,2940003,0,1,wine,250,FALSE,FALSE,0,54,19.6926652892562
2947188,2940003,0,2,wine,250,FALSE,FALSE,0,54,19.6926652892562
2947188,2940003,0,3,wine,250,FALSE,FALSE,0,54,19.6926652892562
2947188,2940003,0,4,wine,250,FALSE,FALSE,0,54,19.6926652892562
2947188,2940003,0,5,wine,300,TRUE,TRUE,0,54,19.6926652892562
2947188,2940003,0,6,wine,300,TRUE,FALSE,0,54,19.6926652892562
2947188,2940003,0,7,wine,300,TRUE,FALSE,0,54,19.6926652892562
2947188,2940003,0,8,wine,300,TRUE,FALSE,0,54,19.6926652892562
2947613,2940003,0,1,wine,276,FALSE,FALSE,1,44,20.9041950113379
2947613,2940003,0,2,wine,250,FALSE,FALSE,1,44,20.9041950113379
2947613,2940003,0,3,wine,250,FALSE,FALSE,1,44,20.9041950113379
2947613,2940003,0,4,wine,250,FALSE,FALSE,1,44,20.9041950113379
2947613,2940003,0,5,wine,250,TRUE,TRUE,1,44,20.9041950113379
2947613,2940003,0,6,wine,250,TRUE,FALSE,1,44,20.9041950113379
2947613,2940003,0,7,wine,250,TRUE,FALSE,1,44,20.9041950113379
2947613,2940003,0,8,wine,250,TRUE,FALSE,1,44,20.9041950113379
2948156,2940004,0,1,wine,250,FALSE,FALSE,1,60,18.5901249256395
2948156,2940004,0,2,wine,270,FALSE,FALSE,1,60,18.5901249256395
2948156,2940004,0,3,wine,250,FALSE,FALSE,1,60,18.5901249256395
2948156,2940004,0,4,wine,230,FALSE,FALSE,1,60,18.5901249256395
2948156,2940004,0,5,wine,350,TRUE,TRUE,1,60,18.5901249256395
2948156,2940004,0,6,wine,330,TRUE,FALSE,1,60,18.5901249256395
2948156,2940004,0,7,wine,310,TRUE,FALSE,1,60,18.5901249256395
2948156,2940004,0,8,wine,350,TRUE,FALSE,1,60,18.5901249256395
2948919,2940004,0,1,wine,0,FALSE,FALSE,1,27,21.7180660897457
2948919,2940004,0,2,wine,0,FALSE,FALSE,1,27,21.7180660897457
2948919,2940004,0,3,wine,0,FALSE,FALSE,1,27,21.7180660897457
2948919,2940004,0,4,wine,0,FALSE,FALSE,1,27,21.7180660897457
2948919,2940004,0,5,wine,0,TRUE,TRUE,1,27,21.7180660897457
2948919,2940004,0,6,wine,0,TRUE,FALSE,1,27,21.7180660897457
2948919,2940004,0,7,wine,0,TRUE,FALSE,1,27,21.7180660897457
2948919,2940004,0,8,wine,0,TRUE,FALSE,1,27,21.7180660897457
2949594,2940004,0,1,wine,125,FALSE,FALSE,1,61,22.6757369614512
2949594,2940004,0,2,wine,245,FALSE,FALSE,1,61,22.6757369614512
2949594,2940004,0,3,wine,222,FALSE,FALSE,1,61,22.6757369614512
2949594,2940004,0,4,wine,225,FALSE,FALSE,1,61,22.6757369614512
2949594,2940004,0,5,wine,250,TRUE,TRUE,1,61,22.6757369614512
2949594,2940004,0,6,wine,250,TRUE,FALSE,1,61,22.6757369614512
2949594,2940004,0,7,wine,450,TRUE,FALSE,1,61,22.6757369614512
2949594,2940004,0,8,wine,300,TRUE,FALSE,1,61,22.6757369614512
2949616,2940004,0,1,wine,295,FALSE,FALSE,1,51,22.4813290656912
2949616,2940004,0,2,wine,200,FALSE,FALSE,1,51,22.4813290656912
2949616,2940004,0,3,wine,200,FALSE,FALSE,1,51,22.4813290656912
2949616,2940004,0,4,wine,200,FALSE,FALSE,1,51,22.4813290656912
2949616,2940004,0,5,wine,300,TRUE,TRUE,1,51,22.4813290656912
2949616,2940004,0,6,wine,300,TRUE,FALSE,1,51,22.4813290656912
2949616,2940004,0,7,wine,290,TRUE,FALSE,1,51,22.4813290656912
2949616,2940004,0,8,wine,290,TRUE,FALSE,1,51,22.4813290656912
2951961,2950004,0,1,chocolate,120,FALSE,FALSE,1,55,22.2309871275413
2951961,2950004,0,2,chocolate,100,FALSE,FALSE,1,55,22.2309871275413
2951961,2950004,0,3,chocolate,100,FALSE,FALSE,1,55,22.2309871275413
2951961,2950004,0,4,chocolate,100,FALSE,FALSE,1,55,22.2309871275413
2951961,2950004,0,5,chocolate,135,TRUE,TRUE,1,55,22.2309871275413
2951961,2950004,0,6,chocolate,125,TRUE,FALSE,1,55,22.2309871275413
2951961,2950004,0,7,chocolate,120,TRUE,FALSE,1,55,22.2309871275413
2951961,2950004,0,8,chocolate,110,TRUE,FALSE,1,55,22.2309871275413
2952428,2950001,0,1,chocolate,270,FALSE,FALSE,0,45,29.218407596786
2952428,2950001,0,2,chocolate,220,FALSE,FALSE,0,45,29.218407596786
2952428,2950001,0,3,chocolate,180,FALSE,FALSE,0,45,29.218407596786
2952428,2950001,0,4,chocolate,180,FALSE,FALSE,0,45,29.218407596786
2952428,2950001,0,5,chocolate,180,TRUE,TRUE,0,45,29.218407596786
2952428,2950001,0,6,chocolate,180,TRUE,FALSE,0,45,29.218407596786
2952428,2950001,0,7,chocolate,180,TRUE,FALSE,0,45,29.218407596786
2952428,2950001,0,8,chocolate,180,TRUE,FALSE,0,45,29.218407596786
2952469,2950001,0,1,chocolate,50,FALSE,FALSE,1,35,20.3244382551093
2952469,2950001,0,2,chocolate,100,FALSE,FALSE,1,35,20.3244382551093
2952469,2950001,0,3,chocolate,100,FALSE,FALSE,1,35,20.3244382551093
2952469,2950001,0,4,chocolate,100,FALSE,FALSE,1,35,20.3244382551093
2952469,2950001,0,5,chocolate,140,TRUE,TRUE,1,35,20.3244382551093
2952469,2950001,0,6,chocolate,140,TRUE,FALSE,1,35,20.3244382551093
2952469,2950001,0,7,chocolate,140,TRUE,FALSE,1,35,20.3244382551093
2952469,2950001,0,8,chocolate,140,TRUE,FALSE,1,35,20.3244382551093
2953569,2950001,0,1,chocolate,150,FALSE,FALSE,0,43,21.2244897959184
2953569,2950001,0,2,chocolate,150,FALSE,FALSE,0,43,21.2244897959184
2953569,2950001,0,3,chocolate,140,FALSE,FALSE,0,43,21.2244897959184
2953569,2950001,0,4,chocolate,140,FALSE,FALSE,0,43,21.2244897959184
2953569,2950001,0,5,chocolate,140,TRUE,TRUE,0,43,21.2244897959184
2953569,2950001,0,6,chocolate,140,TRUE,FALSE,0,43,21.2244897959184
2953569,2950001,0,7,chocolate,140,TRUE,FALSE,0,43,21.2244897959184
2953569,2950001,0,8,chocolate,140,TRUE,FALSE,0,43,21.2244897959184
2954054,2950001,0,1,chocolate,100,FALSE,FALSE,0,48,19.4444444444444
2954054,2950001,0,2,chocolate,125,FALSE,FALSE,0,48,19.4444444444444
2954054,2950001,0,3,chocolate,100,FALSE,FALSE,0,48,19.4444444444444
2954054,2950001,0,4,chocolate,125,FALSE,FALSE,0,48,19.4444444444444
2954054,2950001,0,5,chocolate,145,TRUE,TRUE,0,48,19.4444444444444
2954054,2950001,0,6,chocolate,145,TRUE,FALSE,0,48,19.4444444444444
2954054,2950001,0,7,chocolate,140,TRUE,FALSE,0,48,19.4444444444444
2954054,2950001,0,8,chocolate,140,TRUE,FALSE,0,48,19.4444444444444
2954415,2950002,0,1,chocolate,220,FALSE,FALSE,1,41,22.7583067819754
2954415,2950002,0,2,chocolate,200,FALSE,FALSE,1,41,22.7583067819754
2954415,2950002,0,3,chocolate,190,FALSE,FALSE,1,41,22.7583067819754
2954415,2950002,0,4,chocolate,200,FALSE,FALSE,1,41,22.7583067819754
2954415,2950002,0,5,chocolate,250,TRUE,TRUE,1,41,22.7583067819754
2954415,2950002,0,6,chocolate,200,TRUE,FALSE,1,41,22.7583067819754
2954415,2950002,0,7,chocolate,210,TRUE,FALSE,1,41,22.7583067819754
2954415,2950002,0,8,chocolate,220,TRUE,FALSE,1,41,22.7583067819754
2955538,2950002,0,1,chocolate,50,FALSE,FALSE,1,58,22.8373702422145
2955538,2950002,0,2,chocolate,50,FALSE,FALSE,1,58,22.8373702422145
2955538,2950002,0,3,chocolate,50,FALSE,FALSE,1,58,22.8373702422145
2955538,2950002,0,4,chocolate,50,FALSE,FALSE,1,58,22.8373702422145
2955538,2950002,0,5,chocolate,60,TRUE,TRUE,1,58,22.8373702422145
2955538,2950002,0,6,chocolate,50,TRUE,FALSE,1,58,22.8373702422145
2955538,2950002,0,7,chocolate,50,TRUE,FALSE,1,58,22.8373702422145
2955538,2950002,0,8,chocolate,50,TRUE,FALSE,1,58,22.8373702422145
2955829,2950002,0,1,chocolate,0,FALSE,FALSE,1,38,21.7993079584775
2955829,2950002,0,2,chocolate,0,FALSE,FALSE,1,38,21.7993079584775
2955829,2950002,0,3,chocolate,0,FALSE,FALSE,1,38,21.7993079584775
2955829,2950002,0,4,chocolate,0,FALSE,FALSE,1,38,21.7993079584775
2955829,2950002,0,5,chocolate,0,TRUE,TRUE,1,38,21.7993079584775
2955829,2950002,0,6,chocolate,0,TRUE,FALSE,1,38,21.7993079584775
2955829,2950002,0,7,chocolate,0,TRUE,FALSE,1,38,21.7993079584775
2955829,2950002,0,8,chocolate,0,TRUE,FALSE,1,38,21.7993079584775
2956155,2950002,0,1,chocolate,210,FALSE,FALSE,1,33,26.2975778546713
2956155,2950002,0,2,chocolate,170,FALSE,FALSE,1,33,26.2975778546713
2956155,2950002,0,3,chocolate,170,FALSE,FALSE,1,33,26.2975778546713
2956155,2950002,0,4,chocolate,170,FALSE,FALSE,1,33,26.2975778546713
2956155,2950002,0,5,chocolate,170,TRUE,TRUE,1,33,26.2975778546713
2956155,2950002,0,6,chocolate,200,TRUE,FALSE,1,33,26.2975778546713
2956155,2950002,0,7,chocolate,200,TRUE,FALSE,1,33,26.2975778546713
2956155,2950002,0,8,chocolate,200,TRUE,FALSE,1,33,26.2975778546713
2956302,2950003,0,1,chocolate,25,FALSE,FALSE,1,27,20.6131310030262
2956302,2950003,0,2,chocolate,10,FALSE,FALSE,1,27,20.6131310030262
2956302,2950003,0,3,chocolate,10,FALSE,FALSE,1,27,20.6131310030262
2956302,2950003,0,4,chocolate,0,FALSE,FALSE,1,27,20.6131310030262
2956302,2950003,0,5,chocolate,0,TRUE,TRUE,1,27,20.6131310030262
2956302,2950003,0,6,chocolate,0,TRUE,FALSE,1,27,20.6131310030262
2956302,2950003,0,7,chocolate,0,TRUE,FALSE,1,27,20.6131310030262
2956302,2950003,0,8,chocolate,0,TRUE,FALSE,1,27,20.6131310030262
2957188,2950003,0,1,chocolate,150,FALSE,FALSE,1,55,34.2935528120713
2957188,2950003,0,2,chocolate,150,FALSE,FALSE,1,55,34.2935528120713
2957188,2950003,0,3,chocolate,150,FALSE,FALSE,1,55,34.2935528120713
2957188,2950003,0,4,chocolate,150,FALSE,FALSE,1,55,34.2935528120713
2957188,2950003,0,5,chocolate,200,TRUE,TRUE,1,55,34.2935528120713
2957188,2950003,0,6,chocolate,200,TRUE,FALSE,1,55,34.2935528120713
2957188,2950003,0,7,chocolate,200,TRUE,FALSE,1,55,34.2935528120713
2957188,2950003,0,8,chocolate,200,TRUE,FALSE,1,55,34.2935528120713
2957613,2950003,0,1,chocolate,230,FALSE,FALSE,1,44,29.4117647058824
2957613,2950003,0,2,chocolate,190,FALSE,FALSE,1,44,29.4117647058824
2957613,2950003,0,3,chocolate,150,FALSE,FALSE,1,44,29.4117647058824
2957613,2950003,0,4,chocolate,130,FALSE,FALSE,1,44,29.4117647058824
2957613,2950003,0,5,chocolate,130,TRUE,TRUE,1,44,29.4117647058824
2957613,2950003,0,6,chocolate,130,TRUE,FALSE,1,44,29.4117647058824
2957613,2950003,0,7,chocolate,130,TRUE,FALSE,1,44,29.4117647058824
2957613,2950003,0,8,chocolate,130,TRUE,FALSE,1,44,29.4117647058824
2958156,2950003,0,1,chocolate,110,FALSE,FALSE,1,38,21.0480476121353
2958156,2950003,0,2,chocolate,110,FALSE,FALSE,1,38,21.0480476121353
2958156,2950003,0,3,chocolate,90,FALSE,FALSE,1,38,21.0480476121353
2958156,2950003,0,4,chocolate,80,FALSE,FALSE,1,38,21.0480476121353
2958156,2950003,0,5,chocolate,80,TRUE,TRUE,1,38,21.0480476121353
2958156,2950003,0,6,chocolate,20,TRUE,FALSE,1,38,21.0480476121353
2958156,2950003,0,7,chocolate,0,TRUE,FALSE,1,38,21.0480476121353
2958156,2950003,0,8,chocolate,0,TRUE,FALSE,1,38,21.0480476121353
2958919,2950004,0,1,chocolate,120,FALSE,FALSE,0,30,28.0496712929145
2958919,2950004,0,2,chocolate,120,FALSE,FALSE,0,30,28.0496712929145
2958919,2950004,0,3,chocolate,100,FALSE,FALSE,0,30,28.0496712929145
2958919,2950004,0,4,chocolate,90,FALSE,FALSE,0,30,28.0496712929145
2958919,2950004,0,5,chocolate,90,TRUE,TRUE,0,30,28.0496712929145
2958919,2950004,0,6,chocolate,90,TRUE,FALSE,0,30,28.0496712929145
2958919,2950004,0,7,chocolate,90,TRUE,FALSE,0,30,28.0496712929145
2958919,2950004,0,8,chocolate,90,TRUE,FALSE,0,30,28.0496712929145
2959594,2950004,0,1,chocolate,95,FALSE,FALSE,0,29,23.3886865581877
2959594,2950004,0,2,chocolate,100,FALSE,FALSE,0,29,23.3886865581877
2959594,2950004,0,3,chocolate,100,FALSE,FALSE,0,29,23.3886865581877
2959594,2950004,0,4,chocolate,100,FALSE,FALSE,0,29,23.3886865581877
2959594,2950004,0,5,chocolate,110,TRUE,TRUE,0,29,23.3886865581877
2959594,2950004,0,6,chocolate,110,TRUE,FALSE,0,29,23.3886865581877
2959594,2950004,0,7,chocolate,110,TRUE,FALSE,0,29,23.3886865581877
2959594,2950004,0,8,chocolate,110,TRUE,FALSE,0,29,23.3886865581877
2959616,2950004,0,1,chocolate,100,FALSE,FALSE,0,43,23.3886865581877
2959616,2950004,0,2,chocolate,95,FALSE,FALSE,0,43,23.3886865581877
2959616,2950004,0,3,chocolate,100,FALSE,FALSE,0,43,23.3886865581877
2959616,2950004,0,4,chocolate,100,FALSE,FALSE,0,43,23.3886865581877
2959616,2950004,0,5,chocolate,100,TRUE,TRUE,0,43,23.3886865581877
2959616,2950004,0,6,chocolate,90,TRUE,FALSE,0,43,23.3886865581877
2959616,2950004,0,7,chocolate,100,TRUE,FALSE,0,43,23.3886865581877
2959616,2950004,0,8,chocolate,100,TRUE,FALSE,0,43,23.3886865581877
2981961,2980001,0,1,wine,350,FALSE,FALSE,1,47,24.2214532871972
2981961,2980001,0,2,wine,320,FALSE,FALSE,1,47,24.2214532871972
2981961,2980001,0,3,wine,320,FALSE,FALSE,1,47,24.2214532871972
2981961,2980001,0,4,wine,290,FALSE,FALSE,1,47,24.2214532871972
2981961,2980001,0,5,wine,290,TRUE,TRUE,1,47,24.2214532871972
2981961,2980001,0,6,wine,290,TRUE,FALSE,1,47,24.2214532871972
2981961,2980001,0,7,wine,290,TRUE,FALSE,1,47,24.2214532871972
2981961,2980001,0,8,wine,290,TRUE,FALSE,1,47,24.2214532871972
2982428,2980001,0,1,wine,1000,FALSE,FALSE,1,64,21.7993079584775
2982428,2980001,0,2,wine,1000,FALSE,FALSE,1,64,21.7993079584775
2982428,2980001,0,3,wine,1000,FALSE,FALSE,1,64,21.7993079584775
2982428,2980001,0,4,wine,1000,FALSE,FALSE,1,64,21.7993079584775
2982428,2980001,0,5,wine,1000,TRUE,TRUE,1,64,21.7993079584775
2982428,2980001,0,6,wine,1000,TRUE,FALSE,1,64,21.7993079584775
2982428,2980001,0,7,wine,1000,TRUE,FALSE,1,64,21.7993079584775
2982428,2980001,0,8,wine,1000,TRUE,FALSE,1,64,21.7993079584775
2982469,2980001,0,1,wine,650,FALSE,FALSE,1,59,16.3846974546563
2982469,2980001,0,2,wine,595,FALSE,FALSE,1,59,16.3846974546563
2982469,2980001,0,3,wine,595,FALSE,FALSE,1,59,16.3846974546563
2982469,2980001,0,4,wine,595,FALSE,FALSE,1,59,16.3846974546563
2982469,2980001,0,5,wine,650,TRUE,TRUE,1,59,16.3846974546563
2982469,2980001,0,6,wine,650,TRUE,FALSE,1,59,16.3846974546563
2982469,2980001,0,7,wine,650,TRUE,FALSE,1,59,16.3846974546563
2982469,2980001,0,8,wine,650,TRUE,FALSE,1,59,16.3846974546563
2983569,2980001,0,1,wine,185,FALSE,FALSE,1,61,28.515625
2983569,2980001,0,2,wine,185,FALSE,FALSE,1,61,28.515625
2983569,2980001,0,3,wine,185,FALSE,FALSE,1,61,28.515625
2983569,2980001,0,4,wine,185,FALSE,FALSE,1,61,28.515625
2983569,2980001,0,5,wine,390,TRUE,TRUE,1,61,28.515625
2983569,2980001,0,6,wine,390,TRUE,FALSE,1,61,28.515625
2983569,2980001,0,7,wine,390,TRUE,FALSE,1,61,28.515625
2983569,2980001,0,8,wine,390,TRUE,FALSE,1,61,28.515625
2984054,2980002,0,1,wine,435,FALSE,FALSE,1,43,31.1418685121107
2984054,2980002,0,2,wine,435,FALSE,FALSE,1,43,31.1418685121107
2984054,2980002,0,3,wine,400,FALSE,FALSE,1,43,31.1418685121107
2984054,2980002,0,4,wine,420,FALSE,FALSE,1,43,31.1418685121107
2984054,2980002,0,5,wine,520,TRUE,TRUE,1,43,31.1418685121107
2984054,2980002,0,6,wine,510,TRUE,FALSE,1,43,31.1418685121107
2984054,2980002,0,7,wine,510,TRUE,FALSE,1,43,31.1418685121107
2984054,2980002,0,8,wine,520,TRUE,FALSE,1,43,31.1418685121107
2984415,2980002,0,1,wine,435,FALSE,FALSE,1,44,22.5710475017954
2984415,2980002,0,2,wine,360,FALSE,FALSE,1,44,22.5710475017954
2984415,2980002,0,3,wine,380,FALSE,FALSE,1,44,22.5710475017954
2984415,2980002,0,4,wine,380,FALSE,FALSE,1,44,22.5710475017954
2984415,2980002,0,5,wine,410,TRUE,TRUE,1,44,22.5710475017954
2984415,2980002,0,6,wine,435,TRUE,FALSE,1,44,22.5710475017954
2984415,2980002,0,7,wine,450,TRUE,FALSE,1,44,22.5710475017954
2984415,2980002,0,8,wine,455,TRUE,FALSE,1,44,22.5710475017954
2985538,2980002,0,1,wine,289,FALSE,FALSE,1,25,21.2305720237141
2985538,2980002,0,2,wine,289,FALSE,FALSE,1,25,21.2305720237141
2985538,2980002,0,3,wine,289,FALSE,FALSE,1,25,21.2305720237141
2985538,2980002,0,4,wine,289,FALSE,FALSE,1,25,21.2305720237141
2985538,2980002,0,5,wine,450,TRUE,TRUE,1,25,21.2305720237141
2985538,2980002,0,6,wine,450,TRUE,FALSE,1,25,21.2305720237141
2985538,2980002,0,7,wine,450,TRUE,FALSE,1,25,21.2305720237141
2985538,2980002,0,8,wine,450,TRUE,FALSE,1,25,21.2305720237141
2985829,2980002,0,1,wine,300,FALSE,FALSE,0,48,22.0688094160254
2985829,2980002,0,2,wine,300,FALSE,FALSE,0,48,22.0688094160254
2985829,2980002,0,3,wine,300,FALSE,FALSE,0,48,22.0688094160254
2985829,2980002,0,4,wine,300,FALSE,FALSE,0,48,22.0688094160254
2985829,2980002,0,5,wine,350,TRUE,TRUE,0,48,22.0688094160254
2985829,2980002,0,6,wine,350,TRUE,FALSE,0,48,22.0688094160254
2985829,2980002,0,7,wine,350,TRUE,FALSE,0,48,22.0688094160254
2985829,2980002,0,8,wine,350,TRUE,FALSE,0,48,22.0688094160254
2986155,2980003,0,1,wine,380,FALSE,FALSE,0,26,21.9671201814059
2986155,2980003,0,2,wine,330,FALSE,FALSE,0,26,21.9671201814059
2986155,2980003,0,3,wine,310,FALSE,FALSE,0,26,21.9671201814059
2986155,2980003,0,4,wine,300,FALSE,FALSE,0,26,21.9671201814059
2986155,2980003,0,5,wine,370,TRUE,TRUE,0,26,21.9671201814059
2986155,2980003,0,6,wine,320,TRUE,FALSE,0,26,21.9671201814059
2986155,2980003,0,7,wine,300,TRUE,FALSE,0,26,21.9671201814059
2986155,2980003,0,8,wine,280,TRUE,FALSE,0,26,21.9671201814059
2986302,2980003,0,1,wine,200,FALSE,FALSE,0,44,23.6712536295922
2986302,2980003,0,2,wine,200,FALSE,FALSE,0,44,23.6712536295922
2986302,2980003,0,3,wine,250,FALSE,FALSE,0,44,23.6712536295922
2986302,2980003,0,4,wine,240,FALSE,FALSE,0,44,23.6712536295922
2986302,2980003,0,5,wine,300,TRUE,TRUE,0,44,23.6712536295922
2986302,2980003,0,6,wine,300,TRUE,FALSE,0,44,23.6712536295922
2986302,2980003,0,7,wine,250,TRUE,FALSE,0,44,23.6712536295922
2986302,2980003,0,8,wine,270,TRUE,FALSE,0,44,23.6712536295922
2987188,2980003,0,1,wine,295,FALSE,FALSE,0,53,25.1023913330691
2987188,2980003,0,2,wine,299,FALSE,FALSE,0,53,25.1023913330691
2987188,2980003,0,3,wine,126,FALSE,FALSE,0,53,25.1023913330691
2987188,2980003,0,4,wine,190,FALSE,FALSE,0,53,25.1023913330691
2987188,2980003,0,5,wine,245,TRUE,TRUE,0,53,25.1023913330691
2987188,2980003,0,6,wine,175,TRUE,FALSE,0,53,25.1023913330691
2987188,2980003,0,7,wine,270,TRUE,FALSE,0,53,25.1023913330691
2987188,2980003,0,8,wine,120,TRUE,FALSE,0,53,25.1023913330691
2987613,2980003,0,1,wine,470,FALSE,FALSE,1,50,18.3654729109275
2987613,2980003,0,2,wine,350,FALSE,FALSE,1,50,18.3654729109275
2987613,2980003,0,3,wine,330,FALSE,FALSE,1,50,18.3654729109275
2987613,2980003,0,4,wine,270,FALSE,FALSE,1,50,18.3654729109275
2987613,2980003,0,5,wine,300,TRUE,TRUE,1,50,18.3654729109275
2987613,2980003,0,6,wine,300,TRUE,FALSE,1,50,18.3654729109275
2987613,2980003,0,7,wine,300,TRUE,FALSE,1,50,18.3654729109275
2987613,2980003,0,8,wine,300,TRUE,FALSE,1,50,18.3654729109275
2988156,2980004,0,1,wine,250,FALSE,FALSE,1,43,26.9896193771626
2988156,2980004,0,2,wine,220,FALSE,FALSE,1,43,26.9896193771626
2988156,2980004,0,3,wine,220,FALSE,FALSE,1,43,26.9896193771626
2988156,2980004,0,4,wine,220,FALSE,FALSE,1,43,26.9896193771626
2988156,2980004,0,5,wine,285,TRUE,TRUE,1,43,26.9896193771626
2988156,2980004,0,6,wine,270,TRUE,FALSE,1,43,26.9896193771626
2988156,2980004,0,7,wine,270,TRUE,FALSE,1,43,26.9896193771626
2988156,2980004,0,8,wine,270,TRUE,FALSE,1,43,26.9896193771626
2988919,2980004,0,1,wine,100,FALSE,FALSE,1,50,22.7204383708109
2988919,2980004,0,2,wine,150,FALSE,FALSE,1,50,22.7204383708109
2988919,2980004,0,3,wine,170,FALSE,FALSE,1,50,22.7204383708109
2988919,2980004,0,4,wine,180,FALSE,FALSE,1,50,22.7204383708109
2988919,2980004,0,5,wine,280,TRUE,TRUE,1,50,22.7204383708109
2988919,2980004,0,6,wine,280,TRUE,FALSE,1,50,22.7204383708109
2988919,2980004,0,7,wine,280,TRUE,FALSE,1,50,22.7204383708109
2988919,2980004,0,8,wine,280,TRUE,FALSE,1,50,22.7204383708109
2989594,2980004,0,1,wine,395,FALSE,FALSE,1,29,27.8520079792239
2989594,2980004,0,2,wine,340,FALSE,FALSE,1,29,27.8520079792239
2989594,2980004,0,3,wine,320,FALSE,FALSE,1,29,27.8520079792239
2989594,2980004,0,4,wine,320,FALSE,FALSE,1,29,27.8520079792239
2989594,2980004,0,5,wine,320,TRUE,TRUE,1,29,27.8520079792239
2989594,2980004,0,6,wine,320,TRUE,FALSE,1,29,27.8520079792239
2989594,2980004,0,7,wine,320,TRUE,FALSE,1,29,27.8520079792239
2989594,2980004,0,8,wine,320,TRUE,FALSE,1,29,27.8520079792239
2989616,2980004,0,1,wine,655,FALSE,FALSE,1,47,21.8775510204082
2989616,2980004,0,2,wine,555,FALSE,FALSE,1,47,21.8775510204082
2989616,2980004,0,3,wine,550,FALSE,FALSE,1,47,21.8775510204082
2989616,2980004,0,4,wine,550,FALSE,FALSE,1,47,21.8775510204082
2989616,2980004,0,5,wine,550,TRUE,TRUE,1,47,21.8775510204082
2989616,2980004,0,6,wine,550,TRUE,FALSE,1,47,21.8775510204082
2989616,2980004,0,7,wine,550,TRUE,FALSE,1,47,21.8775510204082
2989616,2980004,0,8,wine,550,TRUE,FALSE,1,47,21.8775510204082
2991961,2990001,0,1,chocolate,120,FALSE,FALSE,0,29,27.4691358024691
2991961,2990001,0,2,chocolate,122,FALSE,FALSE,0,29,27.4691358024691
2991961,2990001,0,3,chocolate,118,FALSE,FALSE,0,29,27.4691358024691
2991961,2990001,0,4,chocolate,107,FALSE,FALSE,0,29,27.4691358024691
2991961,2990001,0,5,chocolate,137,TRUE,TRUE,0,29,27.4691358024691
2991961,2990001,0,6,chocolate,148,TRUE,FALSE,0,29,27.4691358024691
2991961,2990001,0,7,chocolate,123,TRUE,FALSE,0,29,27.4691358024691
2991961,2990001,0,8,chocolate,142,TRUE,FALSE,0,29,27.4691358024691
2992428,2990001,0,1,chocolate,110,FALSE,FALSE,0,49,23.6614386154678
2992428,2990001,0,2,chocolate,120,FALSE,FALSE,0,49,23.6614386154678
2992428,2990001,0,3,chocolate,119,FALSE,FALSE,0,49,23.6614386154678
2992428,2990001,0,4,chocolate,98,FALSE,FALSE,0,49,23.6614386154678
2992428,2990001,0,5,chocolate,124,TRUE,TRUE,0,49,23.6614386154678
2992428,2990001,0,6,chocolate,126,TRUE,FALSE,0,49,23.6614386154678
2992428,2990001,0,7,chocolate,139,TRUE,FALSE,0,49,23.6614386154678
2992428,2990001,0,8,chocolate,147,TRUE,FALSE,0,49,23.6614386154678
2992469,2990001,0,1,chocolate,99,FALSE,FALSE,0,60,26.8744961031981
2992469,2990001,0,2,chocolate,100,FALSE,FALSE,0,60,26.8744961031981
2992469,2990001,0,3,chocolate,100,FALSE,FALSE,0,60,26.8744961031981
2992469,2990001,0,4,chocolate,103,FALSE,FALSE,0,60,26.8744961031981
2992469,2990001,0,5,chocolate,119,TRUE,TRUE,0,60,26.8744961031981
2992469,2990001,0,6,chocolate,120,TRUE,FALSE,0,60,26.8744961031981
2992469,2990001,0,7,chocolate,120,TRUE,FALSE,0,60,26.8744961031981
2992469,2990001,0,8,chocolate,120,TRUE,FALSE,0,60,26.8744961031981
2993569,2990001,0,1,chocolate,125,FALSE,FALSE,1,33,26.346494034401
2993569,2990001,0,2,chocolate,125,FALSE,FALSE,1,33,26.346494034401
2993569,2990001,0,3,chocolate,125,FALSE,FALSE,1,33,26.346494034401
2993569,2990001,0,4,chocolate,125,FALSE,FALSE,1,33,26.346494034401
2993569,2990001,0,5,chocolate,174,TRUE,TRUE,1,33,26.346494034401
2993569,2990001,0,6,chocolate,169,TRUE,FALSE,1,33,26.346494034401
2993569,2990001,0,7,chocolate,169,TRUE,FALSE,1,33,26.346494034401
2993569,2990001,0,8,chocolate,169,TRUE,FALSE,1,33,26.346494034401
2994054,2990002,0,1,chocolate,188,FALSE,FALSE,1,38,25.390625
2994054,2990002,0,2,chocolate,178,FALSE,FALSE,1,38,25.390625
2994054,2990002,0,3,chocolate,177,FALSE,FALSE,1,38,25.390625
2994054,2990002,0,4,chocolate,177,FALSE,FALSE,1,38,25.390625
2994054,2990002,0,5,chocolate,188,TRUE,TRUE,1,38,25.390625
2994054,2990002,0,6,chocolate,188,TRUE,FALSE,1,38,25.390625
2994054,2990002,0,7,chocolate,188,TRUE,FALSE,1,38,25.390625
2994054,2990002,0,8,chocolate,188,TRUE,FALSE,1,38,25.390625
2994415,2990002,0,1,chocolate,60,FALSE,FALSE,1,51,19.53125
2994415,2990002,0,2,chocolate,60,FALSE,FALSE,1,51,19.53125
2994415,2990002,0,3,chocolate,60,FALSE,FALSE,1,51,19.53125
2994415,2990002,0,4,chocolate,60,FALSE,FALSE,1,51,19.53125
2994415,2990002,0,5,chocolate,100,TRUE,TRUE,1,51,19.53125
2994415,2990002,0,6,chocolate,100,TRUE,FALSE,1,51,19.53125
2994415,2990002,0,7,chocolate,100,TRUE,FALSE,1,51,19.53125
2994415,2990002,0,8,chocolate,100,TRUE,FALSE,1,51,19.53125
2995538,2990002,0,1,chocolate,45,FALSE,FALSE,1,43,25.9701155481953
2995538,2990002,0,2,chocolate,45,FALSE,FALSE,1,43,25.9701155481953
2995538,2990002,0,3,chocolate,45,FALSE,FALSE,1,43,25.9701155481953
2995538,2990002,0,4,chocolate,45,FALSE,FALSE,1,43,25.9701155481953
2995538,2990002,0,5,chocolate,75,TRUE,TRUE,1,43,25.9701155481953
2995538,2990002,0,6,chocolate,75,TRUE,FALSE,1,43,25.9701155481953
2995538,2990002,0,7,chocolate,75,TRUE,FALSE,1,43,25.9701155481953
2995538,2990002,0,8,chocolate,75,TRUE,FALSE,1,43,25.9701155481953
2995829,2990002,0,1,chocolate,190,FALSE,FALSE,0,29,21.8775510204082
2995829,2990002,0,2,chocolate,120,FALSE,FALSE,0,29,21.8775510204082
2995829,2990002,0,3,chocolate,110,FALSE,FALSE,0,29,21.8775510204082
2995829,2990002,0,4,chocolate,110,FALSE,FALSE,0,29,21.8775510204082
2995829,2990002,0,5,chocolate,150,TRUE,TRUE,0,29,21.8775510204082
2995829,2990002,0,6,chocolate,150,TRUE,FALSE,0,29,21.8775510204082
2995829,2990002,0,7,chocolate,100,TRUE,FALSE,0,29,21.8775510204082
2995829,2990002,0,8,chocolate,150,TRUE,FALSE,0,29,21.8775510204082
2996155,2990003,0,1,chocolate,110,FALSE,FALSE,1,52,21.8299521999323
2996155,2990003,0,2,chocolate,90,FALSE,FALSE,1,52,21.8299521999323
2996155,2990003,0,3,chocolate,98,FALSE,FALSE,1,52,21.8299521999323
2996155,2990003,0,4,chocolate,100,FALSE,FALSE,1,52,21.8299521999323
2996155,2990003,0,5,chocolate,120,TRUE,TRUE,1,52,21.8299521999323
2996155,2990003,0,6,chocolate,115,TRUE,FALSE,1,52,21.8299521999323
2996155,2990003,0,7,chocolate,110,TRUE,FALSE,1,52,21.8299521999323
2996155,2990003,0,8,chocolate,100,TRUE,FALSE,1,52,21.8299521999323
2996302,2990003,0,1,chocolate,118,FALSE,FALSE,1,50,24.7720967102656
2996302,2990003,0,2,chocolate,115,FALSE,FALSE,1,50,24.7720967102656
2996302,2990003,0,3,chocolate,100,FALSE,FALSE,1,50,24.7720967102656
2996302,2990003,0,4,chocolate,95,FALSE,FALSE,1,50,24.7720967102656
2996302,2990003,0,5,chocolate,95,TRUE,TRUE,1,50,24.7720967102656
2996302,2990003,0,6,chocolate,95,TRUE,FALSE,1,50,24.7720967102656
2996302,2990003,0,7,chocolate,95,TRUE,FALSE,1,50,24.7720967102656
2996302,2990003,0,8,chocolate,95,TRUE,FALSE,1,50,24.7720967102656
2997188,2990003,0,1,chocolate,180,FALSE,FALSE,1,44,21.4535737137265
2997188,2990003,0,2,chocolate,100,FALSE,FALSE,1,44,21.4535737137265
2997188,2990003,0,3,chocolate,100,FALSE,FALSE,1,44,21.4535737137265
2997188,2990003,0,4,chocolate,80,FALSE,FALSE,1,44,21.4535737137265
2997188,2990003,0,5,chocolate,150,TRUE,TRUE,1,44,21.4535737137265
2997188,2990003,0,6,chocolate,120,TRUE,FALSE,1,44,21.4535737137265
2997188,2990003,0,7,chocolate,100,TRUE,FALSE,1,44,21.4535737137265
2997188,2990003,0,8,chocolate,100,TRUE,FALSE,1,44,21.4535737137265
2997613,2990003,0,1,chocolate,75,FALSE,FALSE,0,33,22.5710475017954
2997613,2990003,0,2,chocolate,82,FALSE,FALSE,0,33,22.5710475017954
2997613,2990003,0,3,chocolate,85,FALSE,FALSE,0,33,22.5710475017954
2997613,2990003,0,4,chocolate,85,FALSE,FALSE,0,33,22.5710475017954
2997613,2990003,0,5,chocolate,90,TRUE,TRUE,0,33,22.5710475017954
2997613,2990003,0,6,chocolate,95,TRUE,FALSE,0,33,22.5710475017954
2997613,2990003,0,7,chocolate,95,TRUE,FALSE,0,33,22.5710475017954
2997613,2990003,0,8,chocolate,95,TRUE,FALSE,0,33,22.5710475017954
2998156,2990004,0,1,chocolate,150,FALSE,FALSE,1,57,22.9590876585494
2998156,2990004,0,2,chocolate,110,FALSE,FALSE,1,57,22.9590876585494
2998156,2990004,0,3,chocolate,100,FALSE,FALSE,1,57,22.9590876585494
2998156,2990004,0,4,chocolate,75,FALSE,FALSE,1,57,22.9590876585494
2998156,2990004,0,5,chocolate,100,TRUE,TRUE,1,57,22.9590876585494
2998156,2990004,0,6,chocolate,100,TRUE,FALSE,1,57,22.9590876585494
2998156,2990004,0,7,chocolate,100,TRUE,FALSE,1,57,22.9590876585494
2998156,2990004,0,8,chocolate,100,TRUE,FALSE,1,57,22.9590876585494
2998919,2990004,0,1,chocolate,110,FALSE,FALSE,1,50,24.034609838167
2998919,2990004,0,2,chocolate,110,FALSE,FALSE,1,50,24.034609838167
2998919,2990004,0,3,chocolate,100,FALSE,FALSE,1,50,24.034609838167
2998919,2990004,0,4,chocolate,100,FALSE,FALSE,1,50,24.034609838167
2998919,2990004,0,5,chocolate,100,TRUE,TRUE,1,50,24.034609838167
2998919,2990004,0,6,chocolate,100,TRUE,FALSE,1,50,24.034609838167
2998919,2990004,0,7,chocolate,100,TRUE,FALSE,1,50,24.034609838167
2998919,2990004,0,8,chocolate,100,TRUE,FALSE,1,50,24.034609838167
2999594,2990004,0,1,chocolate,49,FALSE,FALSE,0,47,20.5498866213152
2999594,2990004,0,2,chocolate,69,FALSE,FALSE,0,47,20.5498866213152
2999594,2990004,0,3,chocolate,69,FALSE,FALSE,0,47,20.5498866213152
2999594,2990004,0,4,chocolate,70,FALSE,FALSE,0,47,20.5498866213152
2999594,2990004,0,5,chocolate,95,TRUE,TRUE,0,47,20.5498866213152
2999594,2990004,0,6,chocolate,90,TRUE,FALSE,0,47,20.5498866213152
2999594,2990004,0,7,chocolate,90,TRUE,FALSE,0,47,20.5498866213152
2999594,2990004,0,8,chocolate,89,TRUE,FALSE,0,47,20.5498866213152
2999616,2990004,0,1,chocolate,74,FALSE,FALSE,1,28,22.038567493113
2999616,2990004,0,2,chocolate,59,FALSE,FALSE,1,28,22.038567493113
2999616,2990004,0,3,chocolate,65,FALSE,FALSE,1,28,22.038567493113
2999616,2990004,0,4,chocolate,65,FALSE,FALSE,1,28,22.038567493113
2999616,2990004,0,5,chocolate,79,TRUE,TRUE,1,28,22.038567493113
2999616,2990004,0,6,chocolate,79,TRUE,FALSE,1,28,22.038567493113
2999616,2990004,0,7,chocolate,79,TRUE,FALSE,1,28,22.038567493113
2999616,2990004,0,8,chocolate,79,TRUE,FALSE,1,28,22.038567493113
